Time,Acc_X,Acc_Y,Acc_Z,Meg,Gyr_X,Gyr_Y,Gyr_Z,Ore
20:54:09:858,1.8855,1.406,8.7964,55.2704,-0.1569,0.2186,-0.5673,46.7656
20:54:09:874,1.3864,1.333,10.1695,54.8262,-0.1427,0.3112,-0.5082,46.7656
20:54:09:889,1.1912,1.2947,11.2636,55.5012,-0.0216,0.3165,-0.444,46.7656
20:54:09:908,1.0583,1.2624,11.5869,53.7364,0.1627,0.1677,-0.4006,219.1094
20:54:09:928,0.8932,1.2875,10.7884,54.9103,0.2847,-0.0901,-0.358,219.6562
20:54:09:957,0.9925,1.4539,9.2669,54.1581,0.289,-0.3255,-0.3162,220.1406
20:54:09:974,1.3026,1.7101,8.0255,53.899,0.2072,-0.4243,-0.2704,220.5625
20:54:09:991,1.5647,1.9651,7.3192,53.8921,0.1241,-0.353,-0.2288,220.9375
20:54:10:008,1.712,2.165,7.172,54.3971,0.0618,-0.104,-0.1774,221.2812
20:54:10:031,1.7467,2.3445,7.64,54.3313,0.0069,0.2644,-0.1085,221.6094
20:54:10:057,1.4977,2.4307,8.5821,55.4114,-0.0168,0.6026,-0.0065,221.8906
20:54:10:073,1.062,2.3385,9.4848,54.6284,-0.0043,0.7064,0.0934,222.0938
20:54:10:088,0.9183,2.3254,10.1898,54.2491,0.0154,0.6641,0.1573,222.1875
20:54:10:108,0.6585,2.4092,10.5969,54.7496,0.0799,0.5411,0.2162,222.125
20:54:10:128,0.3461,2.5732,10.3598,53.1098,0.1518,0.3528,0.3182,221.9531
20:54:10:151,0.4023,2.8737,9.5757,52.7087,0.2005,0.2375,0.4074,221.7031
20:54:10:171,0.6035,3.2304,8.739,53.0421,0.1976,0.2697,0.4878,220.9688
20:54:10:189,0.5927,3.4806,8.2206,54.8079,0.1587,0.3943,0.5904,220.75
20:54:10:209,0.6274,3.6087,8.375,52.8409,0.1204,0.5115,0.7011,220.1875
20:54:10:235,1.0799,3.6553,8.6492,52.602,0.1089,0.4532,0.743,219.5312
20:54:10:254,1.269,3.4064,9.1879,53.3594,0.147,0.3629,0.8098,218.7656
20:54:10:272,1.6378,3.2711,9.5494,52.0492,0.1947,0.3051,0.8647,217.8594
20:54:10:290,2.0196,3.1047,9.881,53.0006,0.2511,0.3554,0.8948,216.9219
20:54:10:310,2.4326,2.9299,10.0246,51.4912,0.3214,0.3906,0.8913,215.9062
20:54:10:336,2.7032,2.8569,10.106,52.6067,0.4173,0.3155,0.8125,214.8906
20:54:10:354,2.9653,2.8509,9.8355,53.0386,0.5121,0.1125,0.702,213.7969
20:54:10:371,2.9306,2.8736,9.3112,52.9278,0.498,-0.0094,0.6165,212.7344
20:54:10:389,2.5619,2.8365,8.9245,52.561,0.3156,0.1432,0.6157,211.8594
20:54:10:410,2.1405,2.5217,8.9808,51.9225,0.0186,0.5142,0.6636,211.0625
20:54:10:436,1.6988,2.1063,9.0993,52.0422,-0.2706,0.7056,0.6623,210.3438
20:54:10:452,1.3205,1.9615,9.2992,53.7835,-0.4629,0.5906,0.5733,209.9531
20:54:10:470,1.9921,2.3828,10.0246,52.2286,-0.3691,0.1954,0.2836,209.1719
20:54:10:489,1.3241,2.7013,10.2664,53.3485,-0.0168,-0.2675,-0.036,208.75
20:54:10:516,-0.037,2.6809,9.3435,50.3908,0.3329,-0.4371,0.0194,207.4062
20:54:10:532,-1.0749,2.5911,8.7294,50.4796,0.531,-0.0134,0.2631,207.3281
20:54:10:553,-1.5453,1.8753,8.6923,51.5615,0.6006,0.4984,0.5581,207.4219
20:54:10:571,-1.6375,1.3533,9.0071,52.2183,0.4812,0.8801,0.8596,207.2812
20:54:10:589,-1.4041,1.066,9.6787,51.9778,0.2104,1.1051,1.1257,206.7812
20:54:10:608,-0.6798,0.8637,10.136,51.2317,-0.0908,1.0295,1.3089,205.8281
20:54:10:630,0.2994,0.8781,10.0989,52.3732,-0.3257,0.6713,1.3496,204.5312
20:54:10:652,0.9183,1.0744,9.5997,51.118,-0.4474,0.2111,1.2167,202.9531
20:54:10:669,1.0368,1.4826,9.0191,50.391,-0.4128,-0.1258,0.992,201.375
20:54:10:688,0.613,2.0824,8.4959,52.201,-0.2509,-0.1365,0.804,199.8438
20:54:10:708,0.3401,2.8796,7.9824,50.968,-0.0213,0.1418,0.7696,198.5938
20:54:10:730,0.5903,3.4973,8.3391,51.6248,0.1923,0.7371,0.9137,197.6562
20:54:10:752,0.801,3.4387,8.8239,51.7035,0.3971,1.5067,1.1339,196.7969
20:54:10:769,1.1649,3.1909,8.1464,52.7147,0.5819,2.0516,1.3145,195.8125
20:54:10:789,1.7084,3.1274,6.0036,50.6333,0.5569,1.9946,1.4048,193.7656
20:54:10:809,2.186,3.2639,5.1261,51.8093,0.0708,1.4396,1.3989,192
20:54:10:834,2.2064,3.3764,5.35,51.1156,-0.6863,0.7192,1.3174,190.1406
20:54:10:849,1.3026,3.1083,7.9776,51.5912,-1.3968,-0.1474,1.2274,188.4219
20:54:10:870,2.2399,4.0576,10.3024,49.7483,-1.6568,-0.8872,1.3744,186.7969
20:54:10:889,3.2191,4.2348,10.8973,52.1637,-1.4557,-1.1173,1.4554,185.375
20:54:10:910,3.4071,3.3788,10.6795,51.3435,-1.0642,-1.1061,1.2822,183.8594
20:54:10:936,4.1732,3.5967,10.3024,51.2911,-0.7137,-1.1421,1.1917,182.3594
20:54:10:954,4.688,3.981,10.3048,50.5646,-0.4751,-1.051,1.0199,181.6562
20:54:10:970,4.5,3.8601,10.5107,51.1915,-0.3507,-0.7999,0.7414,180.3281
20:54:10:989,2.8025,2.7288,10.7656,50.8727,-0.2732,-0.5895,0.482,179.1719
20:54:11:008,3.1748,3.6123,12.8282,50.9955,-0.0762,-0.9503,0.5933,178.2188
20:54:11:030,3.4178,3.6015,13.1239,51.7983,0.2458,-0.6025,0.6181,177.5938
20:54:11:054,1.4582,2.0955,12.4021,51.6659,0.6474,-0.2925,0.4433,177.0781
20:54:11:070,2.3967,2.8318,11.5892,51.6736,1.0259,-0.5037,0.5706,176.3906
20:54:11:089,3.2275,3.2555,10.7896,50.6871,1.3252,-0.9604,0.6985,175.5156
20:54:11:109,4.16,2.9754,9.5638,51.4739,1.3745,-1.0877,0.6918,174.7969
20:54:11:129,4.3049,2.2332,8.1751,49.6395,1.0258,-0.6739,0.5422,173.9844
20:54:11:152,4.9573,2.493,8.0291,50.784,0.3803,-0.5674,0.3454,173.1406
20:54:11:168,5.897,3.2998,8.3655,51.0591,-0.3153,-0.9074,0.0039,172.4531
20:54:11:189,5.1668,2.1638,9.869,51.1787,-0.8687,-1.3575,-0.5649,172.0938
20:54:11:210,3.686,0.8015,10.1204,50.7816,-1.1801,-0.553,-1.0342,172.2344
20:54:11:235,4.3791,0.8924,10.0845,50.9133,-1.0203,-0.4347,-1.2323,172.2344
20:54:11:255,4.1972,0.6399,9.5973,50.5443,-0.7675,-0.6443,-1.6163,173.125
20:54:11:272,3.5567,1.06,9.1783,50.605,-0.5297,-0.9879,-1.8483,175.8594
20:54:11:289,3.4597,1.2635,9.5063,50.1048,-0.2546,-0.827,-1.8049,177.4688
20:54:11:311,3.1102,1.7137,10.2401,49.1336,0.0804,-0.4238,-1.5135,181.6719
20:54:11:336,2.8301,1.746,10.4101,49.3621,0.4322,-0.2012,-1.0518,183.8438
20:54:11:354,2.9354,2.0081,10.0689,48.0117,0.6602,0.1283,-0.6368,185.5781
20:54:11:371,3.352,2.0752,8.6552,49.1296,0.5808,0.2071,-0.4398,186.2344
20:54:11:389,2.9749,1.8621,7.3779,48.8488,0.2421,-0.0299,-0.3857,186.6719
20:54:11:409,2.9127,1.8334,7.2761,48.6961,-0.0719,-0.2622,-0.3559,187.4531
20:54:11:428,3.5232,2.1063,7.6532,48.9528,-0.1902,-0.4062,-0.3961,187.625
20:54:11:451,3.2239,2.2416,7.8387,48.1283,-0.0708,-0.5,-0.3796,188.0156
20:54:11:470,2.7092,2.226,8.6432,48.0725,0.2621,-0.3234,-0.2097,188.4531
20:54:11:488,2.9187,2.3709,7.9561,47.0261,0.5499,-0.0275,-0.015,188.9844
20:54:11:508,3.2814,2.4726,6.6153,45.8455,0.538,0.2998,0.1049,189.5
20:54:11:528,3.8931,2.3338,6.4693,46.277,0.3039,0.7613,0.0724,189.7031
20:54:11:553,5.2171,2.3709,7.9429,48.5157,0.1667,1.1064,-0.2083,189.6094
20:54:11:569,5.0184,1.9172,9.0346,46.7364,0.2115,1.0082,-0.6241,189.3438
20:54:11:588,4.4174,1.886,8.7761,47.2295,0.2285,0.5006,-1.1133,189.1094
20:54:11:609,3.6836,2.1219,9.0873,45.3336,0.3579,-0.1,-1.3569,189.1719
20:54:11:628,2.7259,3.8158,10.0079,46.6149,0.5177,0.0492,-1.2728,189.7344
20:54:11:652,0.892,4.5328,9.2789,46.3651,0.6008,0.1315,-0.8928,191.5781
20:54:11:671,0.151,4.9458,8.9389,45.8872,0.5694,0.3312,-0.3553,193.0625
20:54:11:688,0.777,5.0452,8.5007,46.1973,0.4623,0.4385,0.1089,194.25
20:54:11:708,1.1936,4.6765,7.7693,46.6767,0.2093,0.6103,0.4751,194.8125
20:54:11:728,1.5276,4.1701,7.4233,45.5062,-0.1526,0.5283,0.7845,194.7969
20:54:11:754,1.4414,3.7332,6.9912,46.1624,-0.6187,0.3006,1.046,194.3125
20:54:11:828,1.7778,3.4435,7.543,47.4549,-1.0765,0.4873,1.2572,193.4688
20:54:11:828,1.9119,3.1921,9.1603,46.3815,-1.2781,0.9597,1.4447,192.4375
20:54:11:828,1.773,2.4211,11.375,45.5224,-1.1665,1.3725,1.5584,191.1719
20:54:11:844,2.4111,1.6777,13.2018,45.2155,-0.7691,1.4183,1.4018,189.6719
20:54:11:852,2.7331,1.0409,13.8254,44.6854,-0.212,1.0913,1.0141,188.0312
20:54:11:871,2.5368,0.9487,12.6894,46.3989,0.2887,0.6862,0.5794,186.2344
20:54:11:889,1.8161,1.4826,10.1001,46.3988,0.4583,0.4809,0.3552,184.75
20:54:11:909,0.3006,1.5544,7.8782,46.2058,0.3513,0.5248,0.5427,183.7969
20:54:11:929,0.4825,1.5796,6.1341,47.5764,0.0394,0.8351,0.9033,183.4844
20:54:11:953,0.8524,0.7368,6.5662,47.5764,-0.3494,1.0966,1.2458,182.6875
20:54:11:970,1.6389,0.2328,7.3958,46.5548,-0.6474,1.0385,1.4319,181.7812
20:54:11:989,1.8628,-0.0221,8.0973,45.4212,-0.7755,0.8401,1.4519,180.5
20:54:12:008,1.8676,0.2388,8.9832,47.0526,-0.7577,0.5895,1.3661,178.8594
20:54:12:029,2.6768,0.7225,8.6228,46.4409,-0.5571,0.4204,1.3912,177.125
20:54:12:054,2.5894,0.9284,7.9584,46.6744,-0.4029,0.3869,1.3885,175.5781
20:54:12:071,2.7941,1.0313,7.7873,46.7591,-0.4338,0.4886,1.368,173.9844
20:54:12:089,3.2718,0.9571,8.2601,46.4012,-0.6003,0.4164,1.3978,172.375
20:54:12:107,3.4526,0.7739,8.6851,45.938,-0.7894,0.3123,1.3603,170.7812
20:54:12:128,3.4597,0.993,9.2525,46.6503,-0.9286,0.0622,1.2292,169.2656
20:54:12:151,3.346,1.2839,9.8008,46.3011,-0.8903,-0.1003,1.0567,167.6719
20:54:12:168,3.0551,1.3845,10.0067,45.9229,-0.7326,0.0196,0.9739,166.1875
20:54:12:188,3.1724,1.491,9.857,46.9406,-0.5151,0.3006,0.9581,164.9688
20:54:12:207,3.1186,1.6263,10.0893,44.4036,-0.3547,0.6452,0.9142,163.2969
20:54:12:227,2.8073,1.6598,9.7517,46.7089,-0.1875,0.8196,0.7896,162.2031
20:54:12:255,2.5033,1.8058,9.6907,45.9349,-0.0426,0.7107,0.6082,161.2188
20:54:12:271,1.8616,1.9471,9.5243,46.5587,0.0155,0.6745,0.426,160.3125
20:54:12:289,1.2918,2.0309,9.7888,45.6871,-0.0277,0.6095,0.3584,159.625
20:54:12:309,0.7603,1.7699,10.3706,45.9512,-0.1385,0.7099,0.422,159.1562
20:54:12:329,0.7806,1.5485,10.8878,45.0573,-0.2381,0.8918,0.5475,158.75
20:54:12:353,0.6106,1.418,11.5785,45.6555,-0.2772,1.1014,0.6178,158.5312
20:54:12:372,-0.6786,0.7452,12.8749,44.5189,-0.2738,1.4529,0.6319,157.9844
20:54:12:388,-0.8343,0.2783,15.0513,44.6634,0.0123,1.2646,0.8021,157.3281
20:54:12:408,0.716,0.5848,14.3809,44.9823,0.4887,1.2026,0.9177,156.6094
20:54:12:428,0.9027,0.5513,14.2636,45.8595,0.8333,0.9967,0.6561,155.8438
20:54:12:453,1.1637,0.7129,12.5254,44.6692,1.0434,1.0356,0.1864,154.875
20:54:12:471,0.1665,0.3789,10.7525,44.9347,0.9324,0.8351,-0.4049,154.0312
20:54:12:488,-0.5446,0.319,9.8092,42.7479,0.6141,0.2193,-0.7623,153.6406
20:54:12:510,-0.4739,0.6267,9.5135,46.7456,0.2666,-0.2361,-0.8427,154.1875
20:54:12:532,-0.6427,0.7751,9.4812,43.281,0.0586,-0.5104,-0.8928,155.125
20:54:12:554,-0.8438,0.9679,9.6488,42.67,0.1798,-0.6566,-0.9583,157.125
20:54:12:572,-1.033,1.1067,9.8546,41.209,0.3726,-0.7144,-0.9018,158.25
20:54:12:589,-1.3155,1.2336,9.6499,42.7816,0.5755,-0.9794,-0.8161,159.375
20:54:12:609,-1.4029,1.3581,8.7054,44.0334,0.6298,-1.088,-0.6251,160.4688
20:54:12:629,-1.0785,1.2552,7.6448,44.2656,0.5675,-1.1042,-0.3913,160.4688
20:54:12:653,-0.3961,1.0421,6.9553,42.2068,0.4503,-1.0457,-0.2682,161.4531
20:54:12:671,0.7746,0.6123,6.7518,41.4444,0.3225,-1.1165,-0.3484,162.2656
20:54:12:687,2.0555,0.6602,8.0793,41.945,0.31,-0.9437,-0.7197,162.7969
20:54:12:708,2.0089,0.2927,9.1998,42.3181,0.5521,-0.5812,-1.0536,163.1719
20:54:12:729,0.1318,-0.2352,9.2465,43.7226,0.9358,-0.3588,-1.0808,163.6406
20:54:12:755,-0.8498,0.1119,8.3164,42.6655,1.2003,-0.0683,-0.9519,164.5312
20:54:12:772,-1.282,0.8098,7.2139,40.4616,1.2184,0.2127,-0.7679,166.3906
20:54:12:787,-1.5849,1.0098,6.7949,41.312,1.0496,0.4241,-0.4922,167.0156
20:54:12:807,-0.8271,1.1821,6.8499,41.1766,0.7926,0.471,-0.309,168.1562
20:54:12:828,-0.4452,1.3833,6.9708,41.5225,0.4724,0.4303,-0.2666,169.7656
20:54:12:853,-0.0765,1.3928,6.3507,42.1463,0.0802,0.2947,-0.3023,169.7656
20:54:12:873,-1.1144,1.2384,6.7745,41.3529,-0.2991,0.5003,-0.3015,170.0625
20:54:12:893,-1.7572,0.7739,7.8663,39.9422,-0.4301,0.6771,-0.2078,170.3438
20:54:12:912,-1.8207,0.6746,8.6384,40.3432,-0.4874,0.9198,-0.2283,170.6406
20:54:12:927,-1.8279,0.2161,9.8355,40.8388,-0.5523,1.1288,-0.3476,170.8281
20:54:12:948,-1.7345,-0.07,11.5414,40.1167,-0.4682,1.0771,-0.6491,170.9375
20:54:12:972,-2.1583,-0.2867,12.0789,40.0256,-0.2613,0.9733,-1.0099,171
20:54:12:992,-3.0525,-0.4747,10.9524,41.8053,-0.1893,0.968,-1.2374,171.2188
20:54:13:008,-3.2536,-0.6219,9.6069,43.4183,-0.4309,0.8092,-1.3671,171.8125
20:54:13:028,-3.4787,-0.3406,9.3351,40.365,-0.8887,0.1576,-1.3018,172.8438
20:54:13:054,-3.6726,-0.4447,9.4129,42.96,-1.3183,-0.5948,-1.0145,174.0938
20:54:13:073,-3.2368,-0.3334,9.1938,41.3476,-1.6426,-0.8409,-0.6499,175.5156
20:54:13:087,-2.94,-0.7703,9.1232,42.5047,-1.7835,-0.5751,-0.3212,176.875
20:54:13:107,-2.1655,-1.0098,9.5829,42.514,-1.7888,0.0513,-0.2539,177.8281
20:54:13:128,-2.175,-1.406,11.1224,43.6284,-1.5191,0.6894,-0.2376,178.4844
20:54:13:154,-1.9955,-1.5054,11.6192,42.5772,-1.1894,1.03,-0.17,178.5625
20:54:13:172,-2.1283,-1.8992,10.6519,44.1673,-1.1737,0.9597,0.0146,178.625
20:54:13:189,-2.4528,-2.1374,9.9193,43.4445,-1.4259,0.5658,0.336,178.7188
20:54:13:208,-2.0936,-2.1362,10.1024,43.5536,-1.6211,0.083,0.6932,178.7031
20:54:13:228,-1.3119,-1.9806,10.1839,43.2857,-1.6299,-0.2779,0.9331,178.375
20:54:13:253,-0.7445,-1.7747,9.7433,43.3666,-1.5425,-0.4891,1.1041,177.5625
20:54:13:270,-0.2022,-1.7531,9.3579,42.9263,-1.3936,-0.5852,1.2018,176.3438
20:54:13:287,0.2683,-1.8549,8.7545,44.4211,-1.2749,-0.5423,1.2141,174.8594
20:54:13:307,0.5041,-1.9614,8.7773,43.0453,-1.2261,-0.4158,1.1355,173.2969
20:54:13:330,0.212,-1.8166,8.7449,43.3454,-1.1635,-0.2491,1.0346,171.6094
20:54:13:353,0.0109,-1.6095,8.7713,42.6068,-1.126,-0.0603,1.0007,170
20:54:13:372,0.0348,-1.5233,9.3052,42.693,-1.1539,0.1269,1.0111,168.5938
20:54:13:387,0.1486,-1.497,9.7613,43.0884,-1.1723,0.1608,0.9992,167.2344
20:54:13:407,0.0695,-1.3833,10.0522,43.2189,-1.1904,0.0116,0.9203,166.5625
20:54:13:429,0.0983,-1.2097,9.9193,42.6375,-1.1782,-0.1735,0.8117,164.5781
20:54:13:453,0.0444,-1.1247,9.7385,42.2074,-1.1449,-0.2587,0.7123,163.3594
20:54:13:472,-0.1304,-1.1893,10.0127,44.5771,-1.1167,-0.1972,0.6212,162.1406
20:54:13:487,-0.4895,-1.4515,10.4484,43.2555,-1.053,-0.0448,0.5376,161.0156
20:54:13:517,-0.8235,-1.6718,10.9811,44.9226,-0.9851,0.107,0.4873,160.0469
20:54:13:526,-0.869,-1.7328,11.2457,42.4209,-0.9071,0.1714,0.4862,159.1562
20:54:13:548,-0.7026,-1.5748,11.5737,43.8348,-0.8559,0.1666,0.5004,158.3906
20:54:13:571,-0.9719,-1.5808,11.934,44.5616,-0.7851,0.0462,0.4884,157.7344
20:54:13:588,-1.4508,-1.8764,12.3566,43.9495,-0.6709,-0.0957,0.5211,157.0469
20:54:13:608,-1.0031,-2.1685,12.6391,44.8842,-0.5531,-0.0643,0.6436,156.3438
20:54:13:631,-1.0378,-2.6701,13.3143,46.6321,-0.489,-0.1687,0.633,155.625
20:54:13:656,-0.626,-3.0568,13.0581,45.5963,-0.3691,-0.3538,0.5414,154.8438
20:54:13:673,0.2994,-2.9455,12.6283,46.1647,-0.2541,-0.3511,0.4191,153.9531
20:54:13:690,1.0907,-2.3457,12.7457,45.6479,-0.1736,-0.2201,0.123,153.1094
20:54:13:708,0.9817,-1.7304,12.3841,45.538,0.0519,-0.1519,-0.3388,152.125
20:54:13:727,0.1438,-1.6502,11.4025,46.4813,0.3907,-0.1343,-0.7418,151.8906
20:54:13:753,-0.2489,-2.0572,10.5753,46.6911,0.6663,-0.0259,-0.8941,152.25
20:54:13:772,-0.1974,-2.6067,10.3934,47.1712,0.7931,0.0726,-0.9114,153.0781
20:54:13:787,0.2216,-2.9359,10.3838,47.4749,0.8482,0.0894,-0.95,154.2344
20:54:13:807,0.4706,-2.9754,10.3969,47.0331,0.8948,0.0201,-1.0776,155.4375
20:54:13:827,0.358,-2.8605,10.4807,47.709,0.9758,-0.0257,-1.2632,156.0625
20:54:13:892,0.0348,-2.8138,10.3694,48.2801,1.1337,0.0295,-1.4185,158.0469
20:54:13:892,-0.3028,-2.8473,10.2258,48.5874,1.3257,0.144,-1.4965,159.6562
20:54:13:893,-0.529,-3.0281,10.2497,50.5645,1.4895,0.185,-1.4997,161.4688
20:54:13:913,-0.8079,-3.2424,10.2617,51.7958,1.6168,0.0763,-1.4645,163.3281
20:54:13:926,-1.2269,-3.4279,9.8618,52.2355,1.7257,-0.1548,-1.3913,165.3125
20:54:13:949,-1.4807,-3.6063,9.1891,51.6134,1.7896,-0.3761,-1.2483,167.25
20:54:13:970,-1.4412,-3.8074,8.8251,54.8808,1.7516,-0.5178,-1.0499,168.9531
20:54:13:988,-1.2904,-3.9391,8.5785,53.1359,1.6679,-0.586,-0.888,170.5469
20:54:14:007,-1.045,-3.9055,8.0422,53.1359,1.5739,-0.6342,-0.7652,171.875
20:54:14:027,-0.8019,-3.6625,7.7597,54.9131,1.2823,-0.6137,-0.6153,172.4531
20:54:14:049,-0.7146,-3.5356,7.9465,52.7307,1.1758,-0.5423,-0.6017,173.875
20:54:14:071,-0.9396,-3.4063,7.992,52.7306,1.0804,-0.5024,-0.5609,175.4375
20:54:14:087,-1.1814,-3.3441,7.8687,53.5055,0.9457,-0.4819,-0.4587,175.4375
20:54:14:107,-1.1946,-3.2699,7.7681,52.9336,0.7646,-0.4414,-0.3527,176.1406
20:54:14:127,-1.3023,-3.3154,7.962,53.8089,0.5894,-0.3423,-0.2701,176.7969
20:54:14:148,-1.294,-3.5368,8.2637,55.1131,0.4109,-0.252,-0.2235,177.3594
20:54:14:171,-1.2437,-3.653,8.5558,54.3886,0.2245,-0.1857,-0.2406,177.75
20:54:14:188,-1.2197,-3.647,8.8192,53.1565,0.0442,-0.0867,-0.321,178.0781
20:54:14:206,-1.8458,-3.7176,9.2525,54.4006,-0.0985,0.1208,-0.3545,178.3281
20:54:14:226,-2.6287,-3.7751,9.4572,53.8693,-0.2551,0.3259,-0.2744,178.6094
20:54:14:247,-3.3027,-3.8038,9.3746,54.0418,-0.4714,0.4066,-0.0608,178.9688
20:54:14:270,-3.7169,-3.9151,9.1831,55.1927,-0.755,0.4931,0.3211,179.375
20:54:14:288,-2.8885,-3.8026,8.988,54.2395,-1.0903,0.5499,0.687,179.6875
20:54:14:307,-1.4268,-3.2519,9.6703,54.1141,-1.2669,0.4843,0.7893,179.625
20:54:14:327,-0.6954,-2.56,10.6914,57.086,-1.1377,0.3829,0.6769,179
20:54:14:353,-1.3251,-2.2452,10.5849,55.9145,-0.8868,0.3496,0.6354,178.0625
20:54:14:374,-2.3043,-2.2356,9.4057,57.1906,-0.804,0.4233,0.8173,177.2188
20:54:14:387,-2.8358,-2.5468,8.6947,56.0503,-0.9228,0.5578,1.1837,176.4531
20:54:14:407,-2.102,-3.0688,8.9532,58.9248,-1.0813,0.5919,1.442,175.625
20:54:14:425,-0.881,-3.3405,9.7074,57.3596,-1.13,0.4422,1.4636,174.5312
20:54:14:447,0.1102,-3.0281,10.0187,55.6438,-1.0354,0.1869,1.3259,172.9688
20:54:14:471,0.2731,-2.469,9.3279,58.2105,-0.8847,-0.1042,1.2319,171.2188
20:54:14:489,0.0121,-1.886,7.8711,57.3785,-0.8219,-0.2859,1.2966,169.625
20:54:14:507,-0.1028,-1.5592,6.9696,56.1245,-0.8226,-0.2651,1.441,168.8281
20:54:14:532,0.2575,-1.643,6.9325,56.5567,-0.8125,-0.0821,1.5076,167.2969
20:54:14:554,0.7782,-1.9531,7.3563,55.7034,-0.7872,0.0992,1.4324,165.6562
20:54:14:570,1.39,-2.2045,8.0303,55.9876,-0.7689,0.1592,1.2495,163.9531
20:54:14:588,1.7491,-2.2859,8.5151,55.1034,-0.7654,0.1043,0.9856,162.1094
20:54:14:607,1.5599,-1.995,8.6192,55.9512,-0.7832,0.0577,0.7233,158.8594
20:54:14:627,1.0093,-1.5065,8.715,54.6304,-0.7859,0.0904,0.5539,158.2812
20:54:14:647,0.4742,-1.2001,8.8311,56.123,-0.7694,0.2068,0.4822,157.2031
20:54:14:671,0.2994,-1.1666,9.0598,57.8419,-0.783,0.3003,0.4109,156.375
20:54:14:686,0.4143,-1.1319,9.711,58.2504,-0.759,0.2542,0.2489,155.7344
20:54:14:706,0.4382,-1.0313,10.3323,56.4607,-0.6469,0.0835,0.0383,155.1406
20:54:14:728,-0.6846,-1.163,10.2054,56.6659,-0.5137,-0.0233,-0.0797,154.6875
20:54:14:753,-0.7541,-1.491,10.3922,57.5181,-0.4309,0.051,-0.0467,154.4375
20:54:14:770,-0.4033,-1.8549,10.9273,57.593,-0.3971,0.1594,0.0378,154.3906
20:54:14:788,-0.1352,-2.299,12.0705,57.6609,-0.3827,0.168,0.0657,154.3906
20:54:14:805,-0.1244,-2.8377,13.2101,57.7023,-0.2836,0.0958,0.0599,154.3594
20:54:14:825,-0.0238,-3.2471,13.1191,58.7214,-0.0557,-0.0078,0.0684,154.2656
20:54:14:846,0.4143,-3.0281,12.359,57.6782,0.0716,-0.1365,0.0527,154.1562
20:54:14:871,0.376,-2.7539,12.2417,58.1415,0.0336,-0.3375,-0.0797,154.0781
20:54:14:887,0.4071,-2.7743,12.3494,59.8243,0.0093,-0.3618,-0.1857,153.9844
20:54:14:906,0.9781,-2.8629,12.6559,58.8604,0.049,-0.1213,-0.22,153.9375
20:54:14:930,1.7144,-2.7635,12.8809,57.3354,0.151,0.1789,-0.375,154.0781
20:54:14:953,1.4199,-2.5085,12.8187,56.2604,0.3281,0.2106,-0.7655,154.2969
20:54:14:972,0.279,-2.3673,12.1148,56.656,0.5864,0.1056,-1.1575,154.7969
20:54:14:987,-0.62,-2.3852,10.9979,57.0052,0.8722,0.0627,-1.2973,155.7812
20:54:15:006,-1.0067,-2.5959,10.2748,55.5623,1.065,0.1608,-1.2153,157.2344
20:54:15:026,-0.7768,-3.0664,9.9253,54.1938,1.1681,0.3067,-1.0568,157.9688
20:54:15:046,-0.2285,-3.4327,9.8822,53.3401,1.1798,0.2905,-0.9687,159.6094
20:54:15:071,0.3437,-3.5177,9.972,53.23,1.135,0.092,-1.0451,161.1406
20:54:15:088,0.3832,-3.3836,9.8056,55.2494,1.1651,-0.0696,-1.2664,162.5156
20:54:15:106,0.0121,-3.2531,8.9197,55.0156,1.3137,-0.0763,-1.5096,163.8125
20:54:15:127,-0.5613,-3.0843,8.0985,53.4807,1.4173,0.0324,-1.6257,165.2656
20:54:15:147,-0.5865,-3.052,7.9357,54.4619,1.4189,0.0849,-1.538,167.0312
20:54:15:170,-0.517,-3.1526,8.0207,54.176,1.3966,0.0345,-1.3897,168.9219
20:54:15:190,-0.4883,-3.2399,7.7106,52.1603,1.4189,-0.1106,-1.2581,170.9375
20:54:15:206,-0.4859,-3.3381,7.2378,51.584,1.4046,-0.2883,-1.1343,173.6562
20:54:15:227,-0.371,-3.4075,7.3156,50.724,1.3311,-0.3785,-1.0296,175.1562
20:54:15:248,-0.4644,-3.5692,7.5083,50.6076,1.2805,-0.3596,-0.9591,176.5625
20:54:15:271,-0.6727,-3.6506,7.1061,49.5737,1.285,-0.3466,-0.9055,177.8438
20:54:15:287,-0.845,-3.5464,6.5459,48.41,1.2221,-0.3178,-0.8302,178.9531
20:54:15:306,-1.0067,-3.2615,6.832,48.372,0.9987,-0.3165,-0.7396,180.0781
20:54:15:330,-1.2592,-3.0017,7.0391,47.9298,0.7835,-0.3927,-0.6456,181.0938
20:54:15:345,-1.5346,-3.07,6.4729,46.2083,0.6639,-0.5037,-0.4989,182
20:54:15:366,-1.5501,-3.2411,6.589,47.4673,0.4272,-0.4867,-0.2919,182.7344
20:54:15:391,-1.4388,-3.4267,7.6807,46.6062,0.0956,-0.32,-0.0941,183.3281
20:54:15:411,-1.3957,-3.8134,8.9353,45.6261,-0.2876,0.12,0.1251,183.6562
20:54:15:427,-2.2768,-4.619,10.033,46.9395,-0.4663,0.3197,0.3118,183.75
20:54:15:448,-3.0214,-5.3732,10.1491,46.7218,-0.8163,0.3701,0.675,183.6875
20:54:15:474,-2.1918,-5.2607,10.1264,46.0017,-1.2975,0.2055,0.9661,183.5469
20:54:15:490,-0.6882,-4.2228,11.0565,46.5769,-1.5201,-0.0345,1.009,183.2031
20:54:15:505,-0.2273,-3.1131,11.9256,47.033,-1.3425,-0.1397,0.9257,182.3906
20:54:15:526,-0.8558,-2.4343,11.1308,48.2352,-1.1145,-0.063,0.9163,181.2188
20:54:15:546,-1.4424,-2.323,10.1611,47.1056,-1.0602,0.1879,1.0199,179.9531
20:54:15:570,-1.6842,-2.3625,10.5669,46.4958,-1.0381,0.4316,1.1467,178.8594
20:54:15:588,-1.3287,-2.4762,11.3379,47.4846,-0.9215,0.4074,1.2079,177.7188
20:54:15:612,-0.9707,-2.5744,11.2744,43.8797,-0.7867,0.1424,1.2423,176.5
20:54:15:625,-0.8929,-2.4367,10.0139,45.0924,-0.7955,-0.2454,1.3078,175.2188
20:54:15:649,-0.6667,-2.0967,8.8024,45.9709,-0.8703,-0.6039,1.3816,173.8125
20:54:15:673,-0.1076,-1.6538,7.8842,44.3071,-0.8748,-0.762,1.3813,172.3438
20:54:15:687,0.3006,-1.2121,7.306,43.6353,-0.8245,-0.6587,1.2926,170.8125
20:54:15:705,0.54,-1.1259,6.8595,44.0151,-0.7614,-0.4158,1.1512,169.0469
20:54:15:725,0.7232,-1.1642,6.6536,43.8907,-0.7422,-0.1026,1.0016,167.2656
20:54:15:746,0.9255,-1.2504,6.9696,44.2463,-0.7491,0.1842,0.8825,164.2031
20:54:15:771,1.1302,-1.2982,7.4221,43.9823,-0.8056,0.3277,0.7595,163.5625
20:54:15:788,1.1661,-1.2216,8.1332,43.2271,-0.8698,0.3829,0.6135,161.9219
20:54:15:805,1.1745,-1.0337,8.8898,43.6844,-0.8868,0.4652,0.446,161.4531
20:54:15:826,1.2367,-0.7488,9.8499,43.9323,-0.8245,0.557,0.2338,160.7031
20:54:15:846,1.1374,-0.4651,10.7225,44.7113,-0.6687,0.5245,0.005,160.0781
20:54:15:870,0.8477,-0.1945,10.9273,44.2949,-0.5159,0.3275,-0.162,159.7031
20:54:15:887,0.2922,-0.1263,10.9033,43.6576,-0.4144,0.083,-0.2017,159.6094
20:54:15:906,-0.2884,-0.4064,10.9093,42.1551,-0.3569,-0.0124,-0.109,159.7344
20:54:15:973,-0.1914,-0.8493,11.3151,42.4246,-0.3095,0.046,-0.0453,159.8438
20:54:15:973,0.3245,-1.2851,12.2788,43.2359,-0.1955,0.0425,-0.1162,160.0469
20:54:15:973,0.8249,-1.6095,12.8115,41.8114,-0.0503,-0.15,-0.2832,160.1094
20:54:15:987,0.6932,-2.0165,12.8989,42.7096,0.0666,-0.3767,-0.3782,160.125
20:54:16:006,0.5244,-2.3529,12.5924,40.784,0.1236,-0.4638,-0.3287,160.25
20:54:16:026,1.056,-2.5349,12.3805,40.6864,0.1284,-0.4401,-0.2983,160.5156
20:54:16:046,1.354,-2.8581,12.4572,40.8273,0.18,-0.2387,-0.3527,161
20:54:16:070,1.8065,-2.9658,12.5158,40.1891,0.277,0.0891,-0.533,161.2344
20:54:16:087,2.0962,-2.7994,12.5852,40.4723,0.4274,0.3842,-0.823,161.5
20:54:16:106,0.9578,-2.8186,12.4751,40.0951,0.6357,0.5363,-1.089,161.9844
20:54:16:128,0.6071,-3.3154,11.8359,38.6001,0.8093,0.5469,-1.1524,162.8594
20:54:16:155,1.099,-3.5644,11.6527,38.8078,0.8213,0.459,-1.0773,164.1562
20:54:16:173,1.7311,-3.4662,11.6024,38.8078,0.7699,0.2569,-1.093,165.6094
20:54:16:191,1.7563,-3.1442,10.9835,37.2547,0.8221,0.014,-1.2832,167.1094
20:54:16:206,1.3277,-2.7013,10.0127,37.4727,0.9763,-0.0739,-1.5143,168.5
20:54:16:228,0.8932,-2.299,9.5195,39.2773,1.1452,0.0284,-1.6544,169.875
20:54:16:245,0.5053,-2.2272,9.2034,39.2746,1.3295,0.1669,-1.7,171.5625
20:54:16:267,0.1713,-2.305,8.6169,40.1322,1.5188,0.1714,-1.6637,173.4688
20:54:16:287,0.0839,-2.6055,8.4122,39.551,1.6027,0.0428,-1.5109,175.4219
20:54:16:305,0.1234,-2.9371,8.3954,37.7516,1.6195,-0.1383,-1.3354,177.5156
20:54:16:325,0.1378,-3.234,8.2757,41.3072,1.6453,-0.2582,-1.1948,180.375
20:54:16:345,-0.1866,-3.5296,8.0841,40.0331,1.6629,-0.2986,-1.1085,181.9062
20:54:16:368,-0.5051,-3.7451,7.4557,40.247,1.6533,-0.3309,-1.0243,183.3438
20:54:16:386,-0.5482,-3.7739,7.063,39.6993,1.5393,-0.3373,-0.8661,184.0156
20:54:16:405,-0.5446,-3.6661,7.2976,39.5722,1.3337,-0.2643,-0.6938,185.2969
20:54:16:425,-0.7014,-3.5775,7.5047,38.8084,1.1641,-0.1479,-0.5492,186.3594
20:54:16:445,-0.8917,-3.4901,7.5047,39.865,1.0381,-0.0257,-0.4083,187.2812
20:54:16:472,-1.0414,-3.6194,7.4365,38.3319,0.8884,0.0548,-0.2336,188.0156
20:54:16:489,-0.8822,-3.8672,7.7502,38.3663,0.6722,0.0673,-0.0166,188.5781
20:54:16:506,-0.6894,-4.2419,8.3224,39.8881,0.3974,0.059,0.1709,188.9844
20:54:16:525,-0.4751,-4.5328,8.9185,39.4195,0.138,0.0516,0.2886,189.1562
20:54:16:547,-0.711,-4.6681,9.4213,38.3124,-0.1079,0.0367,0.2902,189.0781
20:54:16:572,-1.1862,-4.6861,9.462,39.9283,-0.315,0.0665,0.2537,188.8125
20:54:16:589,-1.549,-4.7603,9.2142,38.9582,-0.5294,0.1235,0.3208,188.3125
20:54:16:606,-0.9085,-4.376,9.0454,39.4434,-0.8104,0.169,0.5499,188.0156
20:54:16:629,-0.2118,-3.6075,9.5135,39.6749,-1.1233,0.1102,0.7249,186.9844
20:54:16:653,-0.3123,-2.8437,9.7709,39.9266,-1.2626,0.0279,0.7312,186.125
20:54:16:668,-1.264,-2.4989,9.237,40.2485,-1.1225,0.1592,0.8079,185.2812
20:54:16:688,-1.9907,-2.5983,8.8311,40.5266,-1.1755,0.4425,1.1062,184.4375
20:54:16:721,-2.0852,-2.8892,9.4931,41.8438,-1.2429,0.764,1.409,183.4688
20:54:16:727,-1.7668,-2.991,10.4915,41.893,-1.2267,0.847,1.6197,182.25
20:54:16:747,-1.3993,-2.8258,10.7668,40.8367,-1.1766,0.6124,1.7635,180.6406
20:54:16:772,-0.6978,-2.5241,10.2868,41.9561,-1.1412,0.1517,1.8314,178.7969
20:54:16:789,-0.1543,-2.1183,9.3447,41.5072,-1.1257,-0.3468,1.8218,176.75
20:54:16:810,0.1665,-1.637,8.2733,39.9327,-1.093,-0.5913,1.7435,174.6875
20:54:16:830,0.382,-1.1486,7.4916,40.5768,-1.008,-0.4619,1.5885,174.6875
20:54:16:853,0.7172,-0.8829,7.2067,39.1333,-0.8764,-0.0142,1.3494,172.4375
20:54:16:869,0.9398,-0.9164,7.3383,38.8275,-0.7523,0.4734,1.0197,169.3125
20:54:16:886,0.534,-1.1043,7.5251,38.661,-0.7119,0.7557,0.7001,169.3125
20:54:16:909,-0.1256,-1.0912,7.725,40.0237,-0.8104,0.8468,0.4971,166.7188
20:54:16:924,-0.5446,-0.7967,8.2254,41.3102,-0.979,0.8433,0.4106,165.5469
20:54:16:944,-0.28,-0.2915,9.3567,40.1191,-1.1073,0.8039,0.3435,164.8438
20:54:16:965,0.2838,0.149,11.1068,41.8241,-1.0488,0.6843,0.2266,164.3281
20:54:16:992,0.4718,0.4914,12.3746,41.025,-0.7979,0.4508,0.0732,163.8906
20:54:17:011,0.3509,0.7404,12.3734,40.3664,-0.5273,0.1163,-0.0571,163.5
20:54:17:025,-0.207,0.7476,11.618,41.2434,-0.3707,-0.1026,-0.0531,163.2344
20:54:17:045,-0.4955,0.4914,11.4671,42.9497,-0.2818,-0.0992,0.0628,163.125
20:54:17:065,-0.0609,0.0688,11.9663,41.9431,-0.1747,-0.0707,0.1139,163.1406
20:54:17:088,0.5041,-0.5417,12.7708,42.6699,-0.0274,-0.1058,0.0764,163.1094
20:54:17:105,0.9722,-1.2025,13.1922,41.6246,0.0802,-0.2241,0.0098,162.9531
20:54:17:125,1.0212,-1.9483,13.282,42.8078,0.1068,-0.3144,-0.0099,162.7812
20:54:17:145,1.6018,-2.4379,13.2915,42.5508,0.0671,-0.1583,-0.0123,162.6719
20:54:17:166,2.4506,-2.5696,13.9823,44.1509,0.1063,0.1035,-0.1479,162.5938
20:54:17:191,3.3245,-2.2883,14.6897,42.2776,0.3116,0.1102,-0.5164,162.5469
20:54:17:206,3.3556,-1.8633,14.5557,40.9161,0.6219,-0.0869,-0.937,162.6094
20:54:17:225,2.4183,-1.7508,13.7153,41.8845,0.95,-0.1849,-1.1468,163.0312
20:54:17:245,1.1984,-2.2799,12.5182,41.69,1.1686,-0.104,-1.1367,163.9531
20:54:17:267,0.7902,-2.9287,11.454,40.7409,1.2576,0.0154,-1.1223,165.2656
20:54:17:295,1.0188,-3.1969,10.6998,40.3517,1.2999,0.0891,-1.2318,166.6406
20:54:17:310,1.2738,-3.3345,10.3886,39.5435,1.3598,0.156,-1.4526,168.0781
20:54:17:325,1.1146,-3.5799,10.288,40.4357,1.4235,0.1211,-1.7138,169.5938
20:54:17:346,0.6884,-3.6506,9.8774,42.0617,1.4504,-0.0339,-1.929,171.2344
20:54:17:371,0.3365,-3.4387,9.3148,43.0819,1.4805,-0.1596,-2.0488,173.25
20:54:17:389,-0.2908,-3.0807,8.636,40.3622,1.4884,-0.2148,-1.9844,174.375
20:54:17:406,-0.7134,-2.8605,8.3319,43.8848,1.5121,-0.2004,-1.7996,176.7344
20:54:17:425,-0.8163,-2.9096,8.0518,42.3028,1.518,-0.1833,-1.6073,179.0938
20:54:17:446,-0.7852,-3.0987,7.9644,40.944,1.4898,-0.1937,-1.4595,181.4844
20:54:17:471,-0.7828,-3.3345,7.8926,40.9332,1.4498,-0.2275,-1.3271,184.6562
20:54:17:488,-0.766,-3.5895,7.6077,40.0363,1.3545,-0.2427,-1.1956,186.4219
20:54:17:506,-0.6559,-3.6901,7.2952,38.8316,1.1928,-0.2478,-1.0821,188.1094
20:54:17:525,-0.784,-3.708,7.409,38.7163,1.0179,-0.2108,-0.9934,189.625
20:54:17:544,-0.7732,-3.7152,7.4688,37.7844,0.8714,-0.1136,-0.8848,190.9375
20:54:17:565,-0.7601,-3.7775,7.7106,39.3454,0.6991,-0.0368,-0.77,192.1719
20:54:17:590,-0.8367,-3.8636,7.98,38.5466,0.5097,-0.0219,-0.6674,193.2969
20:54:17:608,-1.0138,-4.0085,8.3116,39.0001,0.3169,0.009,-0.5703,194.25
20:54:17:624,-1.2305,-4.2084,8.8539,39.8855,0.1148,0.0681,-0.4683,195.0938
20:54:17:645,-1.61,-4.3928,9.4369,39.1377,-0.0855,0.1533,-0.345,195.8281
20:54:17:664,-2.0553,-4.613,10.1084,38.628,-0.2754,0.2359,-0.1852,196.4375
20:54:17:688,-1.8662,-4.7842,10.5813,38.5097,-0.473,0.3453,0.0455,196.8906
20:54:17:706,-0.9839,-4.552,10.7273,39.3831,-0.6756,0.2769,0.2814,197.2031
20:54:17:725,-0.1387,-3.9127,10.4843,39.8635,-0.8432,-0.0393,0.4082,197.2656
20:54:17:744,0.2431,-3.0819,9.7757,39.5863,-0.8991,-0.3772,0.4063,196.8438
20:54:17:764,0.054,-2.4714,9.0311,40.5208,-0.8717,-0.467,0.3043,196.3281
20:54:17:787,-0.4931,-2.2559,8.2374,39.1053,-0.8115,-0.3152,0.1978,195.7812
20:54:17:805,-0.9671,-2.1745,8.156,39.5456,-0.8197,0.0273,0.1698,195.375
20:54:17:825,-1.3287,-2.1602,8.8671,39.7307,-0.882,0.4974,0.222,195.2031
20:54:17:845,-1.5442,-1.9459,9.3854,41.2777,-0.8666,0.8795,0.3251,194.9531
20:54:17:864,-1.9978,-1.6981,9.711,40.7805,-0.8083,1.0913,0.4402,194.7188
20:54:17:885,-2.6024,-1.4742,9.5829,42.3276,-0.7507,1.1488,0.5962,194.4375
20:54:17:905,-2.8753,-1.4192,8.8718,40.2982,-0.7278,0.9818,0.8356,194.0469
20:54:17:924,-2.5138,-1.5628,8.0303,40.3918,-0.8115,0.56,1.1464,193.5156
20:54:17:945,-1.756,-1.552,7.5323,42.3204,-1.008,0.026,1.4346,192.8125
20:54:17:965,-0.8941,-1.6263,7.3731,39.4921,-1.1689,-0.2877,1.6255,191.7031
20:54:17:988,-0.3207,-1.6191,7.2917,39.9895,-1.1857,-0.2885,1.6593,190.1406
20:54:18:062,-0.2405,-1.6562,7.1085,40.3968,-1.1012,-0.0699,1.5416,187.25
20:54:18:063,-0.1902,-1.7352,7.0738,39.264,-1.012,0.2241,1.3736,185.1562
20:54:18:063,-0.3961,-1.8226,7.5035,40.1385,-1.0248,0.4705,1.1944,183.2344
20:54:18:078,-0.2106,-1.7855,8.5558,39.8153,-1.118,0.5112,1.0399,181.625
20:54:18:084,0.0588,-1.74,9.3782,39.8896,-1.1073,0.4686,0.875,180.2031
20:54:18:105,-0.0262,-1.5257,9.6739,38.9685,-1.0091,0.4185,0.6497,178.9219
20:54:18:125,-0.614,-1.2109,9.7673,39.9467,-0.9585,0.2167,0.3805,177.8281
20:54:18:145,-1.5082,-0.9691,10.0187,40.8052,-0.9569,-0.0092,0.1848,177.0312
20:54:18:170,-2.1798,-0.9092,10.2653,38.9487,-0.939,-0.1753,0.1544,176.4688
20:54:18:190,-2.3654,-0.9355,10.9931,41.1748,-0.9409,-0.247,0.2551,176.0781
20:54:18:207,-2.1678,-0.9475,12.3075,40.8197,-0.7934,-0.1508,0.4684,175.7031
20:54:18:226,-1.8542,-1.0576,12.9504,40.7871,-0.5899,-0.264,0.4966,175.7031
20:54:18:246,-1.865,-1.2923,12.9061,42.1657,-0.474,-0.3969,0.564,175.1719
20:54:18:273,-1.8195,-1.7675,12.9863,42.1657,-0.4216,-0.4781,0.6977,174.5156
20:54:18:291,-1.3119,-2.2081,13.1551,40.1658,-0.3888,-0.4536,0.7496,173.4531
20:54:18:310,-0.6344,-2.3409,13.2149,42.4376,-0.3486,-0.3002,0.6455,172.2344
20:54:18:324,0.0372,-2.0045,13.4879,42.4221,-0.2122,-0.1258,0.3733,171.2188
20:54:18:350,0.121,-1.5652,13.6531,42.309,0.0762,-0.0174,0.0849,170.2031
20:54:18:372,0.1258,-1.2013,13.0844,43.7969,0.3617,0.0833,-0.1295,169.3281
20:54:18:389,-0.1268,-1.0576,12.4715,44.158,0.6043,0.2265,-0.2568,168.8281
20:54:18:407,-0.4297,-1.0325,11.873,44.0891,0.8157,0.4859,-0.3378,168.7344
20:54:18:424,-0.784,-1.2157,11.5138,44.0774,0.9745,0.7661,-0.423,168.9688
20:54:18:448,-0.8474,-1.7424,11.946,45.6178,1.1372,0.6518,-0.582,169.4531
20:54:18:472,-0.9528,-2.1961,11.8478,44.5166,1.2802,0.2444,-0.794,170.1094
20:54:18:493,-1.3311,-2.4379,11.1954,45.4741,1.3857,0.0247,-0.9037,170.9531
20:54:18:508,-1.4196,-2.4247,10.3538,48.4265,1.4466,0.0622,-0.9125,172
20:54:18:525,-1.4029,-2.3493,9.7924,49.7816,1.5116,0.1877,-0.856,173.2344
20:54:18:545,-1.1503,-2.3649,9.389,50.8506,1.6056,0.2987,-0.7671,175.1406
20:54:18:564,-0.9013,-2.4331,9.2717,53.2169,1.6698,0.3016,-0.6794,176.4688
20:54:18:589,-0.5446,-2.6869,9.2142,52.6935,1.7633,0.1922,-0.6978,177.7344
20:54:18:608,-0.6092,-3.1214,8.7749,52.1507,1.8498,0.0364,-0.7751,178.8594
20:54:18:630,-0.857,-2.8485,7.9824,54.4055,1.7489,-0.1844,-0.6898,179.9688
20:54:18:643,-1.1671,-3.2196,7.9393,53.5442,1.6917,-0.3554,-0.6012,181.2188
20:54:18:665,-1.3191,-3.392,7.6616,53.9566,1.6272,-0.46,-0.5031,182.3125
20:54:18:689,-1.2521,-3.7164,7.4856,53.7957,1.4916,-0.5216,-0.4587,183.3438
20:54:18:707,-1.1587,-3.9403,7.4581,55.0143,1.3505,-0.6225,-0.5021,184.2188
20:54:18:724,-1.1156,-3.9941,7.2881,54.4541,1.175,-0.7218,-0.5671,184.9375
20:54:18:748,-1.2269,-3.9881,7.0642,54.8189,0.9558,-0.7828,-0.6027,185.6719
20:54:18:771,-1.5382,-4.0935,7.0678,55.3465,0.7281,-0.7319,-0.5846,186.4375
20:54:18:790,-1.707,-4.2216,7.3012,54.5017,0.4836,-0.6172,-0.5641,186.8438
20:54:18:806,-1.9847,-4.3317,7.6268,55.3074,0.1981,-0.5455,-0.5644,187.5938
20:54:18:830,-2.248,-4.3269,8.2613,53.7857,-0.1063,-0.4694,-0.5591,188.3438
20:54:18:844,-2.5186,-4.2898,9.4285,55.3243,-0.3356,-0.3335,-0.5338,189.375
20:54:18:864,-3.1974,-4.3856,10.7836,56.3322,-0.4093,-0.1381,-0.4086,189.9688
20:54:18:890,-3.8522,-4.6537,11.1798,54.3991,-0.4751,-0.0976,-0.1601,190.5781
20:54:18:907,-2.193,-4.0049,8.7437,55.6101,-0.7771,-0.3812,0.1264,191.0938
20:54:18:929,-1.0306,-3.3621,8.721,58.3578,-1.187,-0.8291,0.3081,191.3906
20:54:18:944,-0.7445,-2.9191,8.7509,58.9345,-1.3747,-1.0451,0.3533,191.3281
20:54:18:974,-1.0545,-2.8198,8.5426,58.2174,-1.3438,-0.8089,0.3358,190.9375
20:54:18:988,-1.4328,-2.9,8.5618,58.21,-1.2802,-0.3125,0.2825,190.375
20:54:19:007,-1.7644,-2.718,9.1184,58.1135,-1.2773,0.2119,0.2013,189.8281
20:54:19:023,-1.8147,-2.5097,9.7146,59.9444,-1.2751,0.5781,0.1816,189.3438
20:54:19:047,-1.8051,-2.3002,9.7984,57.6292,-1.2773,0.5477,0.2396,188.9844
20:54:19:064,-1.8279,-1.8202,9.3016,58.9859,-1.301,0.2015,0.3707,188.75
20:54:19:085,-1.6016,-1.3282,8.3284,60.2016,-1.3116,-0.2566,0.5579,188.5156
20:54:19:105,-0.9384,-1.0768,7.5047,58.5689,-1.2967,-0.5591,0.7757,188.125
20:54:19:125,-0.5529,-0.908,6.8248,58.3128,-1.2237,-0.5626,0.9323,187.4844
20:54:19:144,-0.3447,-0.9391,7.1121,58.3676,-1.1888,-0.3634,1.0106,186
20:54:19:164,0.3389,-1.0983,8.0937,56.4736,-1.1492,-0.1226,1.0628,184.7344
20:54:19:189,0.2084,-1.2528,8.059,57.162,-0.9452,0.1293,0.9677,183.4062
20:54:19:206,-0.1064,-1.4251,7.7502,57.4009,-0.7926,0.3688,0.8513,182.1406
20:54:19:225,-0.3231,-1.6741,7.9273,58.6834,-0.792,0.5815,0.8308,180.9844
20:54:19:245,0.1629,-1.7567,8.5809,58.91,-0.865,0.6521,0.8852,180.0156
20:54:19:264,0.4335,-1.6682,9.6452,57.6781,-0.939,0.7126,0.8668,179.1719
20:54:19:289,0.2838,-1.5724,10.2976,57.8235,-0.894,0.7046,0.7065,178.7031
20:54:19:306,-0.1938,-1.4347,10.7393,59.3719,-0.772,0.5965,0.4649,177.75
20:54:19:324,-0.8439,-1.3904,10.7836,57.5832,-0.6314,0.4454,0.2609,176.9062
20:54:19:344,-1.5058,-1.5245,10.8734,58.4802,-0.543,0.2865,0.1824,176.3281
20:54:19:364,-1.7094,-1.7555,11.3702,57.394,-0.5297,0.1927,0.2479,175.9688
20:54:19:389,-1.537,-2.0093,11.9125,58.3787,-0.53,0.0649,0.3533,175.7344
20:54:19:407,-1.4568,-2.2883,12.2381,59.2179,-0.4895,-0.1237,0.4205,175.5156
20:54:19:426,-1.3706,-2.6689,12.2034,58.8556,-0.4192,-0.2446,0.4689,174.8594
20:54:19:444,-0.7289,-2.8461,12.3841,60.4616,-0.3798,-0.1958,0.5177,174.25
20:54:19:464,0.1102,-2.7252,12.7433,59.2569,-0.3483,-0.0153,0.4609,173.6094
20:54:19:489,0.6609,-2.4738,12.6942,59.7795,-0.2208,0.1307,0.2412,172.8906
20:54:19:506,0.6729,-2.4654,12.201,59.5635,0.1555,0.4449,-0.3593,172.0312
20:54:19:526,0.1282,-2.7815,11.8035,58.6872,0.2573,0.6929,-0.5447,172.1875
20:54:19:545,-0.7948,-3.4087,12.1639,59.6802,0.3806,1.0218,-0.6161,172.7656
20:54:19:567,-1.1024,-3.9055,12.7349,58.2067,0.5681,1.3475,-0.7133,173.6562
20:54:19:589,-0.8367,-4.0348,13.258,59.819,0.8048,1.4063,-0.9679,174.7188
20:54:19:605,-0.7337,-3.8696,13.6124,57.4167,1.1145,1.0883,-1.2818,174.7188
20:54:19:630,-1.2521,-3.7667,13.2377,57.1076,1.4637,0.7416,-1.41,176.0781
20:54:19:643,-1.6938,-3.6422,11.9161,58.192,1.6908,0.5717,-1.334,177.7969
20:54:19:665,-1.9117,-3.4423,10.6232,57.4154,1.7915,0.4095,-1.1828,179.7344
20:54:19:694,-1.8362,-3.1478,9.7481,57.6212,1.8647,0.2444,-1.0387,181.8906
20:54:19:710,-1.5789,-2.9095,9.1208,59.5344,1.9646,0.1386,-0.9074,185.7031
20:54:19:727,-1.282,-2.8629,8.6971,62.7488,2.0722,0.0617,-0.8086,185.7031
20:54:19:743,-1.1539,-3.0831,8.2757,61.5609,2.1651,-0.0339,-0.7383,187.3281
20:54:19:763,-1.094,-3.3597,7.8854,60.6745,2.2227,-0.1258,-0.6893,188.7969
20:54:19:786,-1.1767,-3.6577,7.4604,60.7781,2.2299,-0.2012,-0.6328,190.1406
20:54:19:805,-1.2844,-3.9055,6.9888,61.2177,2.1785,-0.2401,-0.5545,191.3281
20:54:19:827,-1.3993,-4.1533,6.5291,59.4742,2.0261,-0.2582,-0.4509,193.6094
20:54:19:844,-1.3981,-4.358,6.2957,59.4252,1.7835,-0.3189,-0.3585,193.6094
20:54:19:863,-1.3742,-4.4706,6.1676,57.8302,1.4797,-0.3889,-0.2872,194.5469
20:54:19:891,-1.3502,-4.4718,6.2993,59.8123,1.1763,-0.4406,-0.2533,195.75
20:54:19:908,-1.4256,-4.4801,6.6823,57.2091,0.9207,-0.4433,-0.231,196.3438
20:54:19:925,-1.6746,-4.5256,6.9948,57.6696,0.6922,-0.3956,-0.1844,196.8125
20:54:19:947,-2.2301,-4.6801,7.3252,58.8543,0.4469,-0.3482,-0.0541,197.2344
20:54:19:963,-2.4767,-4.8285,7.6496,56.6185,0.1483,-0.3735,0.1038,197.5781
20:54:19:984,-2.0864,-4.8429,7.98,57.1639,-0.172,-0.501,0.1608,197.7812
20:54:20:005,-1.8255,-4.7842,8.648,58.5916,-0.4429,-0.4941,0.1033,197.7812
20:54:20:024,-1.9368,-4.7447,9.1998,58.1648,-0.608,-0.373,0.0122,197.5938
20:54:20:045,-2.0721,-4.6441,9.3435,56.732,-0.738,-0.2598,-0.0672,197.375
20:54:20:114,-2.6347,-4.8022,9.061,57.0661,-0.9294,-0.1322,-0.0027,197.2344
20:54:20:114,-2.3462,-4.6465,8.3858,57.7378,-1.2735,-0.1303,0.0995,197.1875
20:54:20:114,-1.4328,-4.0923,8.4636,57.8706,-1.5697,-0.2736,0.087,197.1719
20:54:20:126,-0.9923,-3.5751,8.9568,58.048,-1.6647,-0.3602,0.0154,197.0625
20:54:20:148,-1.3011,-3.3836,9.0825,59.0644,-1.6485,-0.2843,-0.0198,196.7969
20:54:20:163,-1.8566,-3.3752,8.8467,61.1954,-1.6442,-0.0595,0.0298,196.5
20:54:20:185,-2.2552,-3.5895,8.7617,60.2153,-1.7087,0.2729,0.1443,196.2656
20:54:20:206,-2.0685,-3.6805,8.8096,60.0391,-1.8394,0.5296,0.2324,195.9844
20:54:20:224,-1.7441,-3.6865,9.2118,59.3096,-1.9396,0.6348,0.2782,195.7344
20:54:20:244,-1.3394,-3.3908,9.6093,58.3893,-1.9372,0.5277,0.2764,195.3906
20:54:20:264,-1.1084,-2.8784,9.6368,58.75,-1.8144,0.1802,0.2878,195
20:54:20:289,-0.9863,-2.323,9.0981,56.2355,-1.6253,-0.1711,0.3776,194.5625
20:54:20:307,-0.9037,-1.898,7.7633,55.9759,-1.4344,-0.3801,0.519,194.0781
20:54:20:324,-0.8307,-2.1733,7.1791,55.5236,-1.2512,-0.3727,0.6894,193.5156
20:54:20:343,-0.8163,-2.5085,7.0427,57.7287,-1.1777,-0.2236,0.7323,192.7188
20:54:20:364,-0.9109,-2.8461,7.2462,56.1955,-1.1803,-0.0627,0.6926,191.7031
20:54:20:388,-0.7313,-3.1454,8.0147,56.1955,-1.233,0.1203,0.649,190.6094
20:54:20:406,-0.4608,-3.24,8.8503,57.4867,-1.2818,0.2172,0.5957,189.625
20:54:20:423,-0.4189,-3.0424,9.4596,58.2195,-1.3087,0.1506,0.4806,188.7031
20:54:20:443,-0.5697,-2.6857,9.6236,58.0297,-1.2919,-0.0201,0.3179,187.8594
20:54:20:463,-0.7672,-2.2416,9.7661,57.3503,-1.253,-0.1463,0.1595,187.125
20:54:20:492,-1.0689,-2.0165,10.4819,59.2593,-1.1894,-0.1895,0.0122,186.2031
20:54:20:507,-1.5992,-2.1566,11.1798,59.0588,-1.0032,-0.149,-0.1082,185.75
20:54:20:524,-2.0481,-2.5265,11.5306,58.7289,-0.7238,-0.0121,-0.1678,185.4688
20:54:20:544,-2.0326,-2.7324,11.6096,57.9097,-0.4818,0.1509,-0.1852,185.3906
20:54:20:564,-1.8494,-2.7072,11.7353,58.59,-0.339,0.1498,-0.2243,185.375
20:54:20:592,-2.2002,-2.8545,12.3111,58.917,-0.2583,-0.0717,-0.2539,185.5
20:54:20:608,-2.5174,-3.5009,12.6379,58.5558,-0.1217,-0.2835,-0.1098,185.7344
20:54:20:624,-2.3043,-4.4095,12.8318,57.5838,0.0115,-0.3285,0.1872,186
20:54:20:643,-1.3323,-4.9925,13.2748,56.5698,0.0663,-0.2092,0.4418,186.1094
20:54:20:663,-0.0813,-4.8836,13.9787,56.6441,0.1044,-0.0464,0.4529,185.9219
20:54:20:689,0.4466,-4.364,14.242,57.3016,0.2858,-0.0534,0.1448,185.4219
20:54:20:707,0.0193,-4.0683,13.9056,56.4985,0.6397,-0.1492,-0.2629,184.8281
20:54:20:723,-0.6655,-4.3281,13.0054,54.8841,1.098,-0.0933,-0.5061,184.4844
20:54:20:743,-0.8379,-4.862,11.9101,54.3413,1.5121,0.2201,-0.5543,184.8125
20:54:20:762,-0.6978,-5.2247,11.1344,54.0591,1.7465,0.581,-0.6102,185.5312
20:54:20:783,-0.3901,-5.2918,10.4783,52.0639,1.8426,0.8316,-0.7687,186.4375
20:54:20:806,-0.2489,-5.3708,10.458,50.0632,1.856,0.8526,-1.036,187.625
20:54:20:825,-0.602,-5.0416,9.7948,49.982,1.8972,0.7389,-1.2952,189.0938
20:54:20:843,-0.9791,-4.5807,9.2262,50.8241,1.9249,0.6902,-1.4035,190.875
20:54:20:863,-1.1012,-4.1773,8.7042,52.7162,1.9657,0.655,-1.3849,192.7969
20:54:20:887,-1.0761,-3.9187,8.3367,54.1852,2.0181,0.6164,-1.2914,194.9062
20:54:20:905,-0.9851,-3.9008,8.1991,55.8554,2.0853,0.5813,-1.1532,196.9844
20:54:20:923,-0.8833,-4.1055,7.9908,54.7349,2.1734,0.5155,-0.987,198.8281
20:54:20:943,-0.9348,-4.3772,7.5969,53.8144,2.2352,0.3964,-0.839,199.7344
20:54:20:963,-1.0545,-4.5783,7.1432,53.9911,2.2357,0.2452,-0.7218,201.3906
20:54:20:984,-1.1204,-4.7555,6.6213,53.3755,2.1771,0.1536,-0.5908,202.8594
20:54:21:006,-1.0246,-4.8393,6.0742,53.6792,1.82,0.0912,-0.317,204.6406
20:54:21:027,-0.7529,-4.9219,5.9701,52.9192,1.559,0.0715,-0.2413,206.4531
20:54:21:043,-0.6834,-4.9135,5.9318,50.8433,1.2932,0.0135,-0.1788,206.4531
20:54:21:063,-0.8582,-4.9039,5.7701,51.2186,0.9862,-0.0161,-0.0794,207.0469
20:54:21:092,-1.2078,-4.9326,5.818,53.045,0.6599,0.0247,0.0652,207.9375
20:54:21:108,-1.4711,-4.9865,5.8647,51.8706,0.3071,0.1155,0.2189,208.1562
20:54:21:124,-1.701,-5.05,6.1999,50.9787,-0.0716,0.2926,0.3901,208.1562
20:54:21:142,-1.9667,-5.3073,7.1324,50.7699,-0.4261,0.4433,0.5648,208.1719
20:54:21:162,-2.0948,-5.8628,8.2206,53.1443,-0.7412,0.405,0.6647,207.9688
20:54:21:184,-2.2768,-6.5978,9.0322,51.9762,-1.085,0.2468,0.6833,207.5625
20:54:21:206,-1.9583,-6.9282,9.4668,52.5627,-1.4498,-0.0363,0.6087,206.875
20:54:21:223,-0.9695,-6.453,9.6284,52.4589,-1.7633,-0.382,0.401,206.0312
20:54:21:242,-0.1771,-5.2978,9.729,51.9161,-1.9074,-0.692,0.1344,204.2031
20:54:21:263,-0.7026,-4.3916,10.1946,52.7542,-1.779,-0.716,-0.0083,203.7969
20:54:21:289,-1.6028,-3.9079,10.3143,54.2804,-1.4725,-0.4409,-0.0461,203.1406
20:54:21:306,-2.2097,-3.8505,9.7589,56.4154,-1.2573,-0.0337,-0.0757,202.7031
20:54:21:323,-2.7796,-3.9391,9.4812,56.6173,-1.1976,0.385,-0.0999,202.4375
20:54:21:343,-2.9711,-3.787,9.7493,56.3203,-1.1766,0.5562,-0.0954,202.2656
20:54:21:364,-2.8526,-3.5739,10.0594,56.3767,-1.1167,0.4156,-0.0182,202.25
20:54:21:393,-2.533,-3.24,9.9109,57.283,-1.0445,0.128,0.1616,202.2969
20:54:21:412,-2.2038,-2.8964,9.4045,58.6428,-0.9579,-0.3215,0.4354,202.3125
20:54:21:425,-1.7584,-2.5408,8.6372,57.7853,-0.8506,-0.7556,0.703,202.25
20:54:21:443,-1.4376,-2.3242,7.7214,56.9489,-0.7438,-0.9799,0.9014,201.9375
20:54:21:463,-1.3167,-2.2392,7.0127,56.5764,-0.6432,-0.9698,1.0002,201.25
20:54:21:488,-1.3035,-2.3038,6.4824,54.9167,-0.5561,-0.8254,1.0117,200.1094
20:54:21:506,-1.361,-2.5013,6.1269,54.727,-0.5414,-0.6188,0.9893,198.7188
20:54:21:524,-1.4161,-2.8162,5.9353,52.4925,-0.621,-0.4406,0.9816,195.8438
20:54:21:543,-1.4304,-3.0436,5.9976,52.2844,-0.795,-0.3066,0.989,194.4844
20:54:21:563,-1.2832,-3.2184,6.4609,52.2822,-0.9998,-0.2627,0.9579,193.8125
20:54:21:589,-1.2616,-3.2747,7.2234,53.256,-1.1705,-0.3016,0.8777,192.5469
20:54:21:608,-1.3897,-3.2507,8.0207,53.4622,-1.2623,-0.3309,0.8066,191.2188
20:54:21:624,-1.4987,-3.0819,8.5821,52.391,-1.2988,-0.3269,0.7587,189.9375
20:54:21:643,-1.6579,-2.9467,8.8742,53.621,-1.3129,-0.2726,0.7203,188.7656
20:54:21:663,-1.9703,-2.9862,9.5087,53.516,-1.281,-0.1556,0.6889,187.5625
20:54:21:684,-2.3199,-3.1969,10.1695,53.5323,-1.2006,-0.0568,0.6758,186.4219
20:54:21:709,-2.1451,-3.7739,11.0314,54.7069,-1.1268,0.0372,0.6436,185.3438
20:54:21:726,-2.1343,-3.9642,11.7473,55.3541,-1.1057,0.0976,0.6026,184.375
20:54:21:744,-2.248,-4.2754,12.5781,53.3657,-1.0725,0.1232,0.6103,183.4219
20:54:21:763,-1.9583,-4.6274,13.1156,55.8945,-0.9904,0.1589,0.6985,182.5469
20:54:21:791,-1.349,-4.8991,13.8135,56.0353,-0.9268,0.1999,0.7632,181.75
20:54:21:808,-0.4021,-4.7339,14.7053,55.6168,-0.8586,0.267,0.6995,180.8906
20:54:21:824,0.1438,-4.3114,15.2715,57.8006,-0.6799,0.2209,0.4239,179.4375
20:54:21:844,0.6621,-3.6362,14.91,55.671,-0.335,0.0359,0.0428,178.625
20:54:21:863,0.5604,-3.2543,14.0433,57.4201,0.1172,-0.1439,-0.3471,178.2969
20:54:21:882,0.1186,-3.3549,12.6631,57.8838,0.6336,-0.1093,-0.6408,177.9688
20:54:21:906,-0.1723,-3.5524,11.2433,57.4201,1.1007,0.1243,-0.8486,178.0938
20:54:21:923,-0.4584,-3.6877,10.2078,58.21,1.4141,0.3461,-1.0589,178.6719
20:54:21:942,-0.7289,-3.8349,9.5326,58.0915,1.6091,0.463,-1.2496,179.7031
20:54:21:963,-0.8307,-4.0121,9.1843,57.158,1.7313,0.6018,-1.354,181.1562
20:54:21:984,-0.8091,-4.1318,8.8,57.6427,1.8147,0.724,-1.3878,182.8594
20:54:22:007,-0.7349,-4.0839,8.4708,58.4614,1.8506,0.7158,-1.3953,184.875
20:54:22:023,-0.699,-4.0169,8.1919,61.083,1.8434,0.6161,-1.378,187.0312
20:54:22:043,-0.7888,-3.9331,7.877,62.1375,1.8381,0.5035,-1.3183,189.2188
20:54:22:063,-0.8235,-3.896,7.5945,63.484,1.8296,0.4468,-1.2155,191.25
20:54:22:084,-0.766,-3.9462,7.5179,62.8461,1.8123,0.4471,-1.0874,193.2969
20:54:22:106,-0.7648,-4.0564,7.4317,64.1039,1.7891,0.4524,-0.966,195.1875
20:54:22:122,-0.7589,-4.2407,7.3084,62.4139,1.7558,0.4564,-0.8536,197.6562
20:54:22:187,-0.6535,-4.4706,7.1815,62.9719,1.6983,0.471,-0.7226,199.1562
20:54:22:187,-0.6332,-4.6753,7.0905,63.7691,1.587,0.4537,-0.6043,200.5156
20:54:22:188,-0.6451,-4.9183,6.9876,62.2624,1.4232,0.4031,-0.4914,201.6562
20:54:22:203,-0.4668,-5.0464,6.9553,60.6936,1.2203,0.3637,-0.3612,202.6875
20:54:22:224,-0.122,-5.3145,7.2893,62.4701,0.9689,0.3237,-0.2531,203.5625
20:54:22:242,0.2623,-5.688,7.9549,61.6934,0.7145,0.2955,-0.2195,204.2031
20:54:22:264,0.7016,-6.2112,8.5785,59.8618,0.5499,0.3019,-0.2536,204.7031
20:54:22:289,0.6968,-6.5535,9.0933,59.6371,0.4394,0.3083,-0.3769,205.1094
20:54:22:307,0.2731,-6.6134,9.48,61.5303,0.3233,0.2412,-0.5985,205.5469
20:54:22:322,-0.8714,-6.8839,9.8906,61.899,0.2075,0.1253,-0.8451,205.7812
20:54:22:343,-1.5406,-7.0635,9.9408,60.9904,0.0855,0.1014,-0.9236,206.4219
20:54:22:363,-0.9157,-6.8396,10.0498,60.2639,-0.1182,0.1677,-0.8544,207.3438
20:54:22:383,0.5628,-5.9873,10.4807,62.4129,-0.4365,0.039,-0.9093,208.9062
20:54:22:405,0.8991,-4.3688,10.701,60.839,-0.7289,-0.6206,-1.2731,209.8906
20:54:22:423,-0.8295,-2.9335,10.2712,63.5873,-0.4304,-1.6241,-1.8917,210.875
20:54:22:443,-2.7018,-2.1338,9.1125,62.6516,0.0136,-1.1519,-1.6771,212.0312
20:54:22:462,-3.8294,-2.1578,7.6448,61.6902,0.2551,-0.4787,-1.3103,212.0312
20:54:22:486,-4.0808,-2.6187,6.5674,61.8046,0.1473,-0.0094,-0.9607,215.4531
20:54:22:507,-3.7696,-2.9179,6.4968,61.8046,-0.1361,0.2635,-0.6616,217.1406
20:54:22:524,-3.2368,-3.0364,7.6592,63.9118,-0.3057,0.4428,-0.3625,218.5
20:54:22:542,-2.6215,-3.1681,8.8287,63.8342,-0.3164,0.4849,-0.0872,219.6094
20:54:22:561,-2.1714,-3.1226,9.2932,65.3467,-0.2698,0.2952,0.1424,220.4062
20:54:22:582,-1.8351,-3.0712,8.9592,64.9677,-0.2493,-0.0917,0.356,220.8594
20:54:22:610,-1.3933,-2.9311,8.1428,65.53,-0.2937,-0.3977,0.5027,221.0469
20:54:22:626,-0.863,-2.7731,7.4401,65.8441,-0.3382,-0.4422,0.5067,220.9219
20:54:22:643,-0.6583,-2.633,7.0199,65.4821,-0.3281,-0.2691,0.3914,219.8125
20:54:22:662,-0.7026,-2.5492,6.6261,64.1612,-0.319,0.0553,0.2433,219.4375
20:54:22:682,-0.7421,-2.5157,6.4525,64.0584,-0.3507,0.4044,0.0878,218.8125
20:54:22:708,-0.8199,-2.457,6.4202,63.5099,-0.4328,0.6018,-0.0587,218.4062
20:54:22:725,-1.0306,-2.39,6.5531,63.364,-0.5611,0.617,-0.1593,218.25
20:54:22:743,-1.1467,-2.3732,6.8739,60.3635,-0.6946,0.5371,-0.2107,218.3281
20:54:22:772,-1.4029,-2.3721,7.3072,61.3304,-0.7843,0.455,-0.2334,218.5625
20:54:22:790,-1.5681,-2.4379,7.6867,62.0814,-0.8464,0.4143,-0.2486,218.8438
20:54:22:805,-1.4747,-2.4523,8.0782,60.9371,-0.8874,0.3528,-0.3079,219
20:54:22:823,-1.8207,-2.4271,8.4959,59.9398,-0.9039,0.3134,-0.3212,219.3125
20:54:22:842,-1.9488,-2.7336,9.1615,60.6003,-0.8797,0.3403,-0.2715,219.5938
20:54:22:864,-1.8518,-3.2304,9.7158,60.0869,-0.8741,0.3829,-0.2099,219.9531
20:54:22:890,-1.3179,-3.3836,10.2174,59.6771,-0.8946,0.2979,-0.1995,220.2969
20:54:22:909,-1.0905,-3.3465,10.804,59.8119,-0.8485,0.1584,-0.1569,220.6094
20:54:22:925,-1.5549,-3.5895,11.5426,60.3383,-0.6996,0.279,0.041,220.9844
20:54:22:942,-1.7991,-4.4071,12.031,58.0219,-0.5721,0.7064,0.3893,221.1562
20:54:22:962,-0.62,-4.8836,12.5577,58.5281,-0.5675,0.9395,0.5049,221.2188
20:54:22:982,0.5711,-5.1912,13.8039,56.9756,-0.5156,0.7296,0.2801,221.0625
20:54:23:008,1.2679,-4.8704,14.6,57.1759,-0.2951,0.39,-0.0874,220.7344
20:54:23:024,1.5983,-4.2276,14.1642,58.3329,0.0586,0.0974,-0.4107,220.4844
20:54:23:043,1.4498,-3.7655,12.8558,56.1987,0.4056,0.0947,-0.6448,220.5
20:54:23:064,0.9099,-3.8445,11.6072,54.6324,0.6991,0.3978,-0.7673,220.8594
20:54:23:089,0.9542,-4.145,10.5442,56.2403,0.8634,0.6654,-0.9434,221.5312
20:54:23:107,1.1733,-4.4275,9.8163,54.1462,0.931,0.7536,-1.2076,222.4688
20:54:23:124,0.8213,-4.4083,9.6164,54.8709,0.9827,0.7403,-1.4954,223.7656
20:54:23:142,0.5029,-4.2,9.1532,54.7789,1.0456,0.6985,-1.7165,225.3906
20:54:23:162,0.1821,-3.9151,8.6037,55.8463,1.1004,0.6729,-1.8374,227.3594
20:54:23:182,-0.0681,-3.8241,8.2374,55.6501,1.1516,0.6969,-1.8576,229.5156
20:54:23:207,-0.0166,-3.9403,8.1189,59.4353,1.199,0.7938,-1.7926,230.7188
20:54:23:223,0.1833,-4.1186,8.0087,58.5772,1.2325,0.8484,-1.6981,235.7188
20:54:23:247,0.4442,-4.3317,7.8304,58.5971,1.2184,0.7461,-1.6124,236.8438
20:54:23:261,0.5484,-4.376,7.6496,57.1677,1.1361,0.5493,-1.5266,239.2656
20:54:23:281,0.546,-4.3221,7.4916,57.8355,1.0373,0.3498,-1.4502,241.5781
20:54:23:306,0.5484,-4.297,7.1839,56.6284,0.9774,0.2841,-1.3873,243.6094
20:54:23:325,0.5807,-4.3533,7.166,55.2992,0.9001,0.308,-1.3388,245.5781
20:54:23:341,0.6573,-4.4035,7.4868,55.9113,0.792,0.3914,-1.2888,247.4062
20:54:23:367,0.8764,-4.5101,7.822,56.371,0.7105,0.4223,-1.2254,249.1406
20:54:23:391,1.0452,-4.5484,8.0793,56.3321,0.6384,0.3493,-1.1607,250.75
20:54:23:408,1.0452,-4.5771,8.2793,55.0414,0.5739,0.234,-1.1282,252.375
20:54:23:425,0.8596,-4.7016,8.4612,53.6665,0.5345,0.2044,-1.1407,253.9062
20:54:23:444,0.6394,-4.7986,8.624,52.7331,0.5087,0.2292,-1.1772,255.2812
20:54:23:462,0.3221,-4.9195,9.0969,53.8811,0.4775,0.2494,-1.202,256.6719
20:54:23:482,0.2383,-5.0763,9.8104,53.1885,0.4687,0.2654,-1.1665,258.1094
20:54:23:508,-0.0418,-5.1984,10.7321,53.9439,0.4951,0.2481,-1.1261,259.5781
20:54:23:526,-0.7948,-5.451,10.95,52.967,0.6083,0.205,-1.0872,261.6719
20:54:23:543,-0.9384,-5.4151,9.8283,53.8731,0.7428,0.1858,-0.9063,263.0625
20:54:23:561,-0.8714,-5.2295,9.2956,52.3371,0.5758,0.0561,-0.673,264.3438
20:54:23:582,-0.4919,-5.0236,9.5769,53.6529,0.2096,-0.2251,-0.4682,265.4844
20:54:23:608,0.0061,-4.6429,9.7254,51.8174,-0.0652,-0.4944,-0.3756,266.2969
20:54:23:623,0.133,-4.2491,9.5458,52.5135,-0.1619,-0.6014,-0.4744,266.8125
20:54:23:641,-0.2465,-3.9869,9.1005,52.992,-0.1238,-0.492,-0.6936,267.125
20:54:23:662,-0.6691,-3.9247,8.8658,52.8677,-0.0565,-0.1607,-0.8949,267.5312
20:54:23:683,-1.0773,-3.9929,9.0933,53.8336,-0.0258,0.238,-1.0358,268.2031
20:54:23:706,-1.4448,-4.0683,9.2178,56.5741,-0.0136,0.4537,-1.1151,269.1406
20:54:23:724,-1.8231,-3.9762,9.061,55.0477,-0.0349,0.4396,-1.1178,270.375
20:54:23:742,-2.0218,-3.7032,8.7629,55.6646,-0.1033,0.3315,-1.0227,271.75
20:54:23:763,-1.8722,-3.2723,8.4552,57.0862,-0.196,0.2111,-0.8653,273.0625
20:54:23:783,-1.8482,-2.7551,8.4792,56.7071,-0.2684,0.1027,-0.7266,274.2969
20:54:23:806,-1.6998,-2.2739,8.1727,56.7493,-0.1614,-0.0323,-0.4304,274.8281
20:54:23:823,-1.6555,-2.0081,7.6807,54.981,-0.0746,0.0287,-0.2437,276.1719
20:54:23:844,-1.4304,-1.8429,7.6831,54.2722,0.025,0.0028,-0.0842,277.2812
20:54:23:862,-1.0438,-1.8382,7.6867,54.4033,0.0975,-0.0779,0.0037,277.2812
20:54:23:883,-1.1383,-1.9279,7.2964,53.8395,0.1092,-0.0997,0.0761,277.5625
20:54:23:911,-1.3873,-2.05,6.3268,52.8296,0.0293,0.0556,0.1603,277.6562
20:54:23:926,-0.796,-2.5169,6.2346,51.5279,-0.0453,0.258,0.1488,277.625
20:54:23:941,-0.5158,-2.7886,7.3635,51.4468,0.0019,0.1869,0.0577,277.5312
20:54:23:964,-0.5948,-2.803,7.494,50.9836,-0.0812,0.0881,-0.06,277.3594
20:54:23:981,-1.0378,-2.5241,7.7442,51.2062,-0.2101,-0.0952,-0.1782,277.25
20:54:24:001,-1.4364,-2.0608,8.1608,50.3916,-0.2679,-0.1769,-0.236,277.2344
20:54:24:026,-1.7189,-1.6765,8.5773,49.2784,-0.2296,-0.1194,-0.1596,277.3125
20:54:24:045,-1.8243,-1.655,8.9544,50.9342,-0.168,0.0321,-0.0304,277.4844
20:54:24:061,-1.7309,-1.9626,9.4596,49.2485,-0.1369,0.1536,0.0487,277.8438
20:54:24:082,-1.507,-2.2966,9.9899,48.4651,-0.1332,0.1402,0.0511,277.875
20:54:24:108,-1.2173,-2.4068,10.2557,49.4556,-0.1545,0.0383,0.0268,277.875
20:54:24:126,-0.9025,-2.3014,10.458,46.9264,-0.1758,-0.0662,0.0119,277.8438
20:54:24:142,-1.1838,-2.4283,10.9871,47.4594,-0.1289,-0.0936,0.1094,277.8125
20:54:24:161,-1.3119,-2.8222,10.9727,46.8473,-0.1065,-0.0749,0.3222,277.7969
20:54:24:183,-0.7325,-3.0891,10.8794,45.8302,-0.1995,-0.0883,0.4335,277.7188
20:54:24:207,-0.055,-3.3812,11.3259,46.0667,-0.2661,-0.0853,0.4031,277.4531
20:54:24:282,0.7711,-3.3585,11.9472,45.9838,-0.2376,0.0092,0.1826,276.9844
20:54:24:283,1.1984,-3.2471,12.4679,45.2198,-0.1031,0.185,-0.1652,276.7344
20:54:24:283,0.7208,-3.2962,12.7504,43.5278,0.1167,0.4473,-0.4464,276.25
20:54:24:284,-0.1064,-3.7403,12.5541,42.8429,0.2613,0.8241,-0.5226,276.0312
20:54:24:303,-0.2166,-4.133,12.4296,45.1012,0.2575,1.0761,-0.5399,276.2344
20:54:24:325,0.4622,-4.1031,12.8462,43.5319,0.2594,1.014,-0.6768,276.875
20:54:24:340,0.9255,-3.7379,13.1515,43.3404,0.4139,0.756,-0.8712,277.6875
20:54:24:362,0.8261,-3.2603,12.4679,44.5641,0.6703,0.5429,-0.9966,279.0469
20:54:24:382,0.4275,-2.712,11.0494,45.8751,0.89,0.4851,-1.0371,280.1719
20:54:24:406,-0.1411,-2.3074,9.8702,45.6954,1.0738,0.5626,-0.9998,281.4531
20:54:24:424,-0.7852,-1.9794,9.0047,46.8578,1.2613,0.7264,-0.8608,282.7969
20:54:24:441,-1.2904,-1.8729,8.3499,46.4986,1.3886,0.8377,-0.6414,284.0938
20:54:24:462,-1.2353,-2.1709,8.1416,46.0204,1.4192,0.5656,-0.4635,285.4062
20:54:24:482,-0.8367,-2.5241,8.1512,44.2802,1.4184,0.0492,-0.371,286.5312
20:54:24:507,-0.5865,-2.8198,7.1432,42.7433,1.4192,-0.2808,-0.2826,287.3594
20:54:24:522,-0.8558,-2.991,6.9684,43.1385,1.4259,-0.2587,-0.2248,288.0156
20:54:24:541,-1.2652,-3.2411,6.7422,41.0497,1.4504,-0.0808,-0.1982,288.4844
20:54:24:561,-1.2988,-3.4866,6.5997,39.1374,1.4072,0.0723,-0.1503,288.8125
20:54:24:581,-1.039,-3.6637,6.8248,41.0452,1.2562,0.1128,-0.0906,289.1406
20:54:24:609,-1.209,-3.9187,7.3814,39.9821,1.052,0.0641,-0.0682,289.4531
20:54:24:626,-1.4304,-4.0959,7.5921,40.1526,0.877,-0.0105,-0.0571,289.7031
20:54:24:642,-1.5561,-4.2192,7.6592,40.1526,0.7124,-0.0454,-0.0286,289.9531
20:54:24:662,-1.513,-4.3724,7.7825,40.0729,0.5212,-0.0084,0.0021,290.0781
20:54:24:681,-1.1743,-4.3377,8.0363,36.1079,0.3007,0.0066,0.0252,290.1719
20:54:24:710,-1.3143,-4.3401,8.6635,38.055,0.0887,-0.0297,-0.0376,290.2031
20:54:24:724,-2.1702,-4.6861,9.0789,37.5712,-0.0288,0.0052,-0.1513,290.2031
20:54:24:742,-3.0094,-5.1326,8.9568,38.7487,-0.1004,0.1405,-0.1854,290.2031
20:54:24:767,-3.7516,-5.6916,8.7426,37.6749,-0.2834,0.2505,-0.0829,290.3125
20:54:24:780,-3.4332,-5.8305,8.7761,38.5814,-0.6426,0.3408,0.1834,290.5156
20:54:24:801,-2.1152,-5.3026,9.4812,37.365,-1.1353,0.3509,0.421,290.6875
20:54:24:823,-1.0809,-4.1677,10.3682,37.9049,-1.5105,0.1099,0.4223,290.6406
20:54:24:842,-1.7668,-3.4219,10.9464,37.3782,-1.5625,-0.1349,0.2529,290.2344
20:54:24:861,-3.0717,-3.3154,10.555,36.2504,-1.3215,-0.0936,0.2175,289.5938
20:54:24:881,-3.5026,-3.6925,9.6942,37.1239,-1.0653,0.1131,0.429,289.0781
20:54:24:910,-2.7149,-3.8493,9.4931,38.0171,-1.065,0.2859,0.7294,288.7188
20:54:24:926,-1.7225,-3.6194,10.0534,39.8423,-1.2464,0.2201,0.8916,287.9375
20:54:24:941,-1.2293,-3.0592,9.7385,40.9823,-1.3092,-0.1588,0.8692,287.0469
20:54:24:961,-1.0773,-2.4331,8.2888,41.4216,-1.1976,-0.606,0.8295,285.9844
20:54:24:981,-1.124,-2.0321,6.5842,41.2646,-1.0786,-0.8507,0.8575,284.8281
20:54:25:006,-0.9767,-1.7148,5.7091,40.9394,-1.0722,-0.8638,0.915,283.6562
20:54:25:023,-0.7421,-1.6478,5.678,38.3418,-1.1385,-0.6835,0.9225,282.4844
20:54:25:041,-0.6475,-1.7328,6.152,39.1534,-1.1649,-0.4142,0.8269,281.1562
20:54:25:064,-0.8175,-1.9052,6.5447,37.3887,-1.1414,-0.1394,0.6535,279.875
20:54:25:080,-1.1156,-2.0393,6.7326,35.768,-1.13,0.0233,0.4825,278.7344
20:54:25:103,-1.3754,-2.1243,7.1624,36.2403,-1.2024,0.0854,0.3701,277.9062
20:54:25:124,-1.4939,-2.2021,7.9908,34.2378,-1.3316,0.1211,0.3235,277.2656
20:54:25:143,-1.5142,-2.1374,9.0322,34.5523,-1.4339,0.1634,0.2748,276.75
20:54:25:161,-1.5884,-1.9722,9.966,35.2216,-1.4389,0.2321,0.1792,276.3125
20:54:25:182,-1.8865,-1.7113,10.6016,34.1805,-1.3468,0.2931,0.0434,275.9062
20:54:25:211,-1.9416,-1.5101,11.1763,35.4585,-1.0221,-0.0584,-0.13,275.75
20:54:25:226,-2.2852,-1.5341,11.1367,34.2071,-0.8456,-0.1136,-0.1223,275.5312
20:54:25:245,-2.5354,-1.7089,11.3929,35.5803,-0.6919,-0.1048,-0.0475,275.5469
20:54:25:263,-2.4827,-2.0405,11.8837,33.4893,-0.535,-0.2062,-0.0062,275.5469
20:54:25:281,-2.2325,-2.1901,12.3015,33.3625,-0.3582,-0.3074,-0.0145,275.5469
20:54:25:302,-2.2935,-2.463,12.7444,34.4588,-0.143,-0.3839,0.0404,275.4844
20:54:25:324,-2.2828,-2.9167,13.033,34.0736,0.085,-0.3484,0.1722,275.3594
20:54:25:340,-2.4539,-3.708,13.2197,33.6817,0.2634,-0.0515,0.393,275.2344
20:54:25:360,-1.8231,-4.3437,13.8446,33.9676,0.3925,0.205,0.4678,275.0312
20:54:25:380,-1.1826,-4.6824,14.5042,34.018,0.5169,0.0705,0.3046,274.7188
20:54:25:401,-0.7972,-4.558,14.7747,34.5629,0.6996,-0.1924,0.1017,274.2656
20:54:25:424,-0.2022,-4.0659,14.1858,34.044,0.9587,-0.4981,-0.0965,273.8438
20:54:25:441,-0.0753,-3.6853,13.0509,35.9152,1.2698,-0.6542,-0.2912,273.5938
20:54:25:460,-0.4153,-3.7535,11.7329,35.9993,1.5569,-0.4901,-0.4525,273.4844
20:54:25:482,-0.4871,-4.0456,10.5274,38.8759,1.7478,-0.1607,-0.647,273.5156
20:54:25:508,-0.4045,-4.3999,9.6571,40.223,1.8381,0.1187,-0.8653,273.9531
20:54:25:526,-0.2405,-4.698,9.0227,43.0518,1.8115,0.2726,-1.0651,274.6094
20:54:25:541,-0.2525,-4.6873,8.5702,43.1791,1.698,0.3224,-1.1988,275.6094
20:54:25:562,-0.3554,-4.3042,8.3439,45.4998,1.5819,0.2998,-1.2547,276.8438
20:54:25:581,-0.5099,-3.8469,8.2984,47.2199,1.5409,0.2939,-1.2281,278.3438
20:54:25:601,-0.5661,-3.5129,8.2182,49.0762,1.5686,0.3642,-1.1269,279.9375
20:54:25:622,-0.5015,-3.4219,8.138,47.2844,1.6088,0.4297,-0.9985,281.4375
20:54:25:640,-0.4596,-3.4662,8.217,45.692,1.6304,0.3967,-0.8901,282.9531
20:54:25:662,-0.6511,-3.538,8.29,48.4924,1.6434,0.2747,-0.7924,284.3438
20:54:25:682,-1.0246,-3.6194,8.1512,45.9132,1.6464,0.1536,-0.6461,285.5156
20:54:25:709,-1.1958,-3.6517,7.7442,48.3051,1.5984,0.0809,-0.4408,286.0938
20:54:25:726,-1.0976,-3.696,7.4557,50.3588,1.505,0.0305,-0.2459,287.1406
20:54:25:744,-0.8786,-3.8229,7.391,50.5922,1.4003,-0.0515,-0.13,288
20:54:25:760,-0.7134,-4.0217,7.1791,50.1515,1.277,-0.1415,-0.0903,288.5938
20:54:25:782,-0.6236,-4.1665,6.9194,50.8038,1.1023,-0.1937,-0.0858,288.9688
20:54:25:812,-0.6032,-4.2695,6.7697,50.4197,0.8964,-0.207,-0.1085,289.2031
20:54:25:830,-0.8187,-4.5232,6.9984,50.5101,0.7025,-0.1274,-0.1495,289.4375
20:54:25:849,-1.0905,-5.038,7.2988,51.4877,0.4522,-0.0126,-0.199,289.5938
20:54:25:861,-1.2401,-5.3516,7.6412,49.9063,0.1164,0.0329,-0.289,289.7812
20:54:25:881,-1.2604,-5.1876,8.0111,52.4328,-0.2312,0.0335,-0.3804,289.9844
20:54:25:907,-2.0553,-4.88,9.5039,53.9543,-0.4517,0.1237,-0.3937,290.2812
20:54:25:924,-2.3306,-5.0057,9.4524,53.215,-0.5465,0.2633,-0.325,290.6719
20:54:25:941,-2.5401,-5.0907,9.3722,53.5386,-0.7071,0.2995,-0.2485,291.1094
20:54:25:960,-2.6299,-4.9518,9.2992,54.6585,-0.9374,0.242,-0.1428,291.4844
20:54:25:981,-2.3318,-4.5699,9.2489,53.8243,-1.1808,0.1395,0.0146,291.7812
20:54:26:006,-1.9045,-3.8804,9.0801,53.9723,-1.3833,-0.0361,0.1302,291.9688
20:54:26:024,-1.9021,-3.1825,8.9209,55.2699,-1.4884,-0.194,0.1717,291.9844
20:54:26:041,-2.4551,-2.8449,8.8072,55.6992,-1.4812,-0.1897,0.2239,291.8125
20:54:26:060,-2.989,-2.8557,8.6109,54.7864,-1.3934,-0.0137,0.3842,291.5312
20:54:26:081,-3.1614,-3.2148,8.4289,55.1063,-1.3361,0.2393,0.6575,291.2031
20:54:26:107,-2.6934,-3.6039,8.5522,58.2811,-1.3952,0.3581,0.9677,290.7969
20:54:26:126,-1.865,-3.7727,8.9245,58.7012,-1.5601,0.2066,1.2157,290.1406
20:54:26:142,-1.015,-3.5428,8.9137,59.2169,-1.6895,-0.096,1.3555,289.1562
20:54:26:160,-0.5278,-3.0783,8.5618,59.7776,-1.718,-0.3905,1.3805,287.9062
20:54:26:183,-0.3087,-2.554,7.7861,59.0452,-1.6647,-0.5762,1.3065,286.2969
20:54:26:208,-0.3758,-2.1697,7.0953,59.0994,-1.5766,-0.5484,1.2066,284.5156
20:54:26:224,-0.5673,-1.9662,6.9912,58.5494,-1.5154,-0.3434,1.1102,282.8125
20:54:26:240,-0.5877,-2.0608,7.2569,58.4499,-1.4573,-0.0928,1.0207,281.1094
20:54:26:266,-0.8462,-2.1997,7.3994,56.7554,-1.4139,0.0332,0.9054,279.5469
20:54:26:279,-0.6559,-2.3924,7.8794,55.9713,-1.4605,-0.0137,0.7925,278.1406
20:54:26:352,-0.8211,-2.4032,8.0949,55.7523,-1.4725,-0.0345,0.634,276.9531
20:54:26:352,-0.9073,-2.4642,8.9544,56.043,-1.5228,0.0329,0.4796,275.3438
20:54:26:353,-0.5027,-2.7515,10.2485,55.5327,-1.5484,0.0071,0.352,274.5
20:54:26:359,-0.3698,-2.8066,11.1475,55.521,-1.5372,-0.1977,0.1323,273.7969
20:54:26:381,-0.541,-2.3697,11.4803,56.383,-1.4296,-0.3945,-0.1338,273.2188
20:54:26:400,-1.0402,-1.9662,11.5725,56.639,-1.24,-0.4859,-0.3031,272.8125
20:54:26:424,-1.616,-1.8154,11.5809,57.1784,-0.9697,-0.4758,-0.33,272.6719
20:54:26:440,-2.0589,-2.0165,11.6455,56.9802,-0.681,-0.2917,-0.2746,272.7031
20:54:26:460,-1.9739,-2.1721,11.6838,57.2719,-0.4218,-0.0377,-0.1798,272.7812
20:54:26:482,-2.0445,-2.4894,11.9496,58.069,-0.2075,0.1363,-0.1367,272.8906
20:54:26:511,-2.0182,-3.0735,12.1208,59.7303,-0.0362,0.0952,-0.0613,273.0469
20:54:26:525,-1.6674,-3.7224,12.4236,60.7358,0.0434,0.009,0.1163,273.25
20:54:26:541,-1.0653,-4.3856,13.1359,58.6211,0.0485,-0.0198,0.2686,273.3438
20:54:26:561,0.133,-4.3557,13.8278,61.1005,0.086,0.0894,0.2694,273.2344
20:54:26:580,0.7567,-3.8349,14.5054,61.5171,0.1997,0.1669,-0.0096,272.9219
20:54:26:601,0.6202,-3.2124,14.4647,61.9963,0.9436,0.014,-0.7908,272.7656
20:54:26:624,-0.4009,-3.2352,13.6938,63.0065,1.4264,0.2162,-0.889,272.7656
20:54:26:643,-1.0174,-3.8385,12.6152,63.1868,1.7433,0.5669,-0.8696,272.75
20:54:26:661,-0.8259,-4.5556,12.1112,64.1423,1.8893,0.6905,-0.9109,273.3281
20:54:26:680,-0.1423,-4.8728,11.7988,66.4415,1.9574,0.5078,-1.0406,275.5
20:54:26:700,0.0648,-4.8321,11.5869,68.2397,2.0464,0.2875,-1.1463,275.5
20:54:26:725,-0.116,-4.6106,11.175,67.3461,2.179,0.1802,-1.1886,278.2969
20:54:26:742,-0.2261,-4.388,10.604,72.6305,2.3449,0.1999,-1.1932,279.8281
20:54:26:761,-0.2788,-4.3796,10.1851,72.3868,2.5324,0.3112,-1.145,281.3125
20:54:26:779,-0.4596,-4.5185,9.7637,70.4997,2.6941,0.3863,-1.0344,282.875
20:54:26:800,-0.4991,-4.8261,9.2058,70.4997,2.746,0.3429,-0.897,284.4531
20:54:26:827,-0.462,-5.1398,8.7569,71.1309,2.6842,0.1869,-0.7921,285.9219
20:54:26:840,-0.6188,-5.2068,8.3631,69.3079,2.5689,0.0185,-0.7149,287.3594
20:54:26:859,-0.9851,-5.111,7.8579,68.4976,2.432,-0.0917,-0.5766,288.6094
20:54:26:880,-1.106,-5.0009,7.3371,67.2876,2.257,-0.1117,-0.3921,289.6406
20:54:26:900,-1.0294,-4.9051,6.9265,68.2292,2.0493,-0.1223,-0.2323,291.0469
20:54:26:924,-0.8965,-4.8572,6.7254,67.3875,1.8168,-0.1953,-0.0973,291.7188
20:54:26:944,-1.0749,-4.6956,6.4405,64.5207,1.5449,-0.3761,0.0809,292.1562
20:54:26:960,-1.2425,-4.4562,6.0586,65.3016,1.2171,-0.6254,0.3062,292.4375
20:54:26:980,-1.2724,-4.3616,5.8887,64.2058,0.886,-0.7559,0.5089,292.5469
20:54:27:001,-1.5836,-4.4311,5.9725,66.1609,0.6099,-0.6691,0.6769,292.3906
20:54:27:025,-1.6483,-4.6322,5.9186,65.289,0.3079,-0.4518,0.7808,291.9844
20:54:27:043,-1.2042,-4.7651,6.0467,63.2141,-0.0551,-0.268,0.7296,291.3438
20:54:27:066,-0.8067,-4.7591,6.7901,64.4347,-0.3702,-0.1482,0.5752,290.5312
20:54:27:081,-1.0677,-4.8261,7.7442,64.8259,-0.5723,-0.0081,0.4295,289.7031
20:54:27:100,-1.8817,-5.0488,7.9752,64.4739,-0.7838,0.1296,0.4162,289.2969
20:54:27:120,-2.5784,-5.3911,7.7502,65.1439,-1.1521,0.2473,0.5842,288.6406
20:54:27:139,-2.1487,-5.372,7.6604,65.3265,-1.6405,0.2281,0.7587,288.1562
20:54:27:159,-0.7313,-4.8058,8.46,65.3142,-2.0006,0.0271,0.7299,287.6875
20:54:27:179,-0.0394,-4.2551,9.5901,65.8283,-2.0379,-0.1429,0.5983,287
20:54:27:200,-0.6008,-4.1031,10.0773,66.4851,-1.8956,0.0377,0.589,286.1094
20:54:27:222,-1.4987,-4.3018,9.863,67.3338,-1.8283,0.406,0.6993,284.9062
20:54:27:241,-1.7369,-4.6765,10.0785,68.1592,-1.8978,0.6897,0.8045,284.2031
20:54:27:262,-1.3179,-4.8429,10.6735,68.1269,-1.9798,0.6918,0.8796,283.4688
20:54:27:279,-0.4835,-4.7998,11.1703,70.7568,-2.0014,0.4401,0.9243,282.6562
20:54:27:301,1.1864,-3.8804,10.3227,70.3168,-1.9369,-0.0225,0.8969,281.7188
20:54:27:322,1.2583,-3.0855,9.134,71.8245,-1.8325,-0.4438,0.7997,280.6719
20:54:27:339,0.8537,-2.3649,8.2625,73.0165,-1.7026,-0.5815,0.7089,279.6094
20:54:27:359,0.1581,-1.959,7.9309,70.6643,-1.5665,-0.4419,0.6545,278.4844
20:54:27:379,-0.3578,-1.9842,7.5862,70.074,-1.4064,-0.2198,0.6439,277.4219
20:54:27:398,-0.4596,-2.3206,7.3431,68.9805,-1.2962,-0.0337,0.7054,276.4375
20:54:27:418,-0.2812,-2.639,7.6592,67.8025,-1.3289,0.0638,0.7888,275.6094
20:54:27:439,-0.2657,-2.7863,8.3236,68.0962,-1.4525,0.0473,0.8018,274.75
20:54:27:459,-0.6056,-2.4379,8.5354,66.4911,-1.5558,-0.0483,0.7355,273.8281
20:54:27:479,-0.6248,-2.1566,9.4668,68.2626,-1.6847,-0.117,0.6753,272.8906
20:54:27:500,-0.1555,-1.7891,10.7106,70.7199,-1.7007,-0.092,0.6348,271.4375
20:54:27:522,-0.3423,-1.6095,11.0338,68.4875,-1.4442,0.0926,0.4585,270.5
20:54:27:542,-1.0162,-1.6191,11.369,67.8909,-1.2,0.234,0.246,269.6719
20:54:27:559,-1.4125,-1.8118,11.946,69.2582,-1.0325,0.2308,0.128,269.0625
20:54:27:579,-1.4508,-1.9758,12.5182,68.845,-0.8695,0.1855,0.0961,268.8906
20:54:27:599,-1.4819,-2.0548,12.9276,69.9479,-0.6983,0.1629,0.0623,268.6875
20:54:27:623,-1.7429,-2.1841,13.3334,69.1614,-0.493,0.0886,0.0223,268.5781
20:54:27:642,-1.9296,-2.5205,13.6926,68.8885,-0.2748,0.0095,0.0804,268.4844
20:54:27:659,-1.7441,-3.064,14.0361,69.5197,-0.0631,0.0321,0.2447,268.4375
20:54:27:679,-1.294,-3.8229,14.57,67.7657,0.1228,0.0926,0.3848,268.3906
20:54:27:699,-0.1603,-4.1007,15.0537,67.962,0.2908,0.1895,0.4324,268.1875
20:54:27:724,0.6729,-3.9355,15.2763,67.2872,0.4597,0.0729,0.258,267.8594
20:54:27:741,1.0021,-3.4746,14.4934,67.8044,0.7137,-0.313,-0.0568,267.4531
20:54:27:758,0.4359,-3.4842,13.2556,65.7645,1.0634,-0.623,-0.3593,267.0781
20:54:27:778,0.2156,-3.9558,12.0513,67.9349,1.4434,-0.5373,-0.5266,267.0938
20:54:27:798,0.4933,-4.5257,11.375,65.4742,1.7233,-0.0944,-0.6571,267.3281
20:54:27:819,0.8644,-4.856,11.0529,63.8705,1.8757,0.2553,-0.9285,267.8594
20:54:27:838,0.8058,-4.874,10.6878,63.5631,1.9745,0.3658,-1.2917,268.7188
20:54:27:858,0.2515,-4.7519,10.0175,64.127,2.0661,0.3632,-1.574,270.0312
20:54:27:878,-0.1711,-4.4646,9.4596,65.0394,2.1151,0.3874,-1.6667,271.6875
20:54:27:899,-0.3806,-4.1893,9.3722,66.6134,2.1175,0.4359,-1.6275,273.7344
20:54:27:920,-0.4835,-3.9774,9.3997,65.1898,2.1494,0.4425,-1.517,275.8906
20:54:27:942,-0.5302,-3.9834,9.4369,65.3224,2.2325,0.4231,-1.337,277.875
20:54:27:958,-0.5482,-4.1701,9.5051,64.0126,2.3217,0.3331,-1.1122,279.8438
20:54:27:980,-0.7541,-4.4071,9.4704,63.9233,2.3873,0.1112,-0.8952,281.5781
20:54:28:000,-0.9456,-4.6585,9.3172,61.2869,2.4341,-0.2835,-0.4709,283.0312
20:54:28:021,-1.1156,-4.9638,8.9939,59.7403,2.4011,-0.3836,-0.2531,284.125
20:54:28:038,-0.9827,-5.2583,8.5726,59.6306,2.2813,-0.5397,-0.0738,284.125
20:54:28:059,-0.6655,-5.3983,8.0674,58.8222,2.1004,-0.7373,0.03,285.6094
20:54:28:079,-0.4548,-5.3516,7.5407,56.3753,1.8938,-0.8691,0.0678,285.9375
20:54:28:098,-0.2585,-5.1529,7.0079,56.6004,1.6773,-0.8853,0.0346,286.0625
20:54:28:118,-0.4356,-5.038,6.5842,54.6177,1.4639,-0.7631,-0.0256,286.0625
20:54:28:140,-0.8115,-5.1074,6.0168,54.0421,1.1926,-0.5543,-0.0448,286
20:54:28:165,-0.8427,-5.1541,5.3679,55.8089,0.7827,-0.3564,-0.0682,285.9844
20:54:28:184,-0.8319,-5.1194,5.1836,53.8275,0.3079,-0.1671,-0.1151,286.0312
20:54:28:197,-1.0007,-5.2056,5.4409,54.1739,-0.1622,0.1136,-0.1633,286.0938
20:54:28:218,-1.3742,-5.5587,6.0335,55.3408,-0.6096,0.5094,-0.2129,286.1719
20:54:28:240,-1.6615,-5.9227,7.0115,54.2873,-1.0184,0.8713,-0.2922,286.3125
20:54:28:258,-1.9021,-6.1106,7.5646,53.9741,-1.4392,0.9493,-0.3284,286.5
20:54:28:279,-1.1922,-5.7766,7.798,54.407,-1.9092,0.81,-0.379,286.7031
20:54:28:298,-0.5841,-5.026,8.8419,54.6007,-2.1891,0.6159,-0.5018,287
20:54:28:319,-1.0761,-4.2659,9.8941,55.6506,-2.1777,0.5173,-0.6086,287.7188
20:54:28:339,-2.2313,-3.8624,10.124,54.9237,-2.0349,0.5568,-0.5668,287.9688
20:54:28:407,-3.2632,-3.7308,9.6559,56.7664,-1.9952,0.7216,-0.3519,288.5625
20:54:28:407,-3.7061,-3.8038,9.5793,56.1244,-2.0754,0.8239,-0.0709,289.2344
20:54:28:407,-3.3123,-3.7463,10.0235,58.3036,-2.1444,0.7187,0.1994,289.7188
20:54:28:425,-2.6251,-3.6949,10.543,59.2927,-2.1161,0.5637,0.4908,289.9531
20:54:28:439,-1.7908,-3.5823,10.6926,60.8445,-2.0195,0.2502,0.7446,289.8438
20:54:28:461,-0.9803,-3.4004,10.1815,60.6452,-1.9295,-0.2587,0.911,289.4375
20:54:28:479,-0.529,-3.0664,9.292,59.5265,-1.8546,-0.6472,0.9957,288.6562
20:54:28:501,-0.4464,-2.6522,8.4313,60.067,-1.7604,-0.7311,1.021,287.5469
20:54:28:525,-0.3734,-2.4092,7.9477,57.6435,-1.6309,-0.5615,0.9893,286.2031
20:54:28:540,-0.4955,-2.3888,7.5945,55.5146,-1.5193,-0.2888,0.9206,285.5469
20:54:28:558,-0.5434,-2.5792,7.4198,55.4597,-1.4986,-0.0209,0.8559,284.0781
20:54:28:578,-0.5553,-2.8581,7.9165,54.6533,-1.5327,0.1014,0.784,282.6875
20:54:28:598,-0.7924,-2.8832,8.5091,52.7098,-1.6016,-0.0201,0.7161,281.4531
20:54:28:618,-1.1575,-2.7168,9.0849,53.8788,-1.6887,-0.2486,0.7041,280.4062
20:54:28:638,-1.1359,-2.4116,10.1946,53.3678,-1.5492,-0.3389,0.6924,278.9375
20:54:28:659,-1.1778,-2.3002,10.5047,54.9421,-1.3175,-0.2646,0.6553,277.9375
20:54:28:678,-1.422,-2.22,10.2581,53.9435,-1.1966,-0.2414,0.6212,276.9219
20:54:28:700,-1.6698,-2.4475,11.3367,54.1325,-1.0714,-0.2353,0.6079,275.8906
20:54:28:722,-1.7237,-2.645,11.7245,53.1504,-0.9009,-0.2044,0.6026,274.9531
20:54:28:739,-1.7943,-2.8629,12.2333,53.104,-0.7782,-0.2539,0.5661,274.0938
20:54:28:758,-1.8362,-3.0233,12.4847,54.2515,-0.6466,-0.3666,0.5134,273.2031
20:54:28:778,-1.8853,-3.2962,12.7457,54.2011,-0.5017,-0.4012,0.4868,272.3438
20:54:28:799,-1.6423,-3.5979,13.3346,52.4361,-0.3681,-0.2627,0.4918,271.5625
20:54:28:824,-1.3598,-3.9367,13.944,51.5377,-0.2202,-0.0621,0.4679,270.75
20:54:28:839,-0.6272,-3.957,14.2372,51.5666,-0.0392,0.1152,0.3784,270
20:54:28:857,0.2216,-3.4566,14.1115,52.0194,0.1409,0.1371,0.1624,269.3281
20:54:28:881,0.2216,-2.9838,13.5322,50.775,0.3686,-0.133,-0.2014,268.8594
20:54:28:898,-0.523,-3.1131,12.5757,49.225,0.7121,-0.3074,-0.5146,268.6094
20:54:28:921,-0.8259,-3.6984,11.6778,47.7522,1.0834,0.009,-0.6318,268.8125
20:54:28:943,-0.365,-4.1342,11.3044,47.7522,1.3396,0.5443,-0.7058,269.3281
20:54:28:960,0.151,-4.1438,11.5126,48.5692,1.4898,0.9048,-0.9463,270.1719
20:54:28:979,-0.0047,-4.0408,11.6766,47.4274,1.6669,1.0726,-1.2949,271.3594
20:54:28:999,-0.6188,-3.8553,11.2876,46.9673,1.9087,1.051,-1.5578,272.875
20:54:29:025,-1.2676,-3.7834,10.5885,46.405,2.1268,0.969,-1.6222,274.9375
20:54:29:042,-1.4197,-3.702,9.9337,45.9397,2.2898,0.8479,-1.4835,276.0938
20:54:29:059,-1.2473,-3.8361,9.6428,48.3065,2.391,0.6833,-1.244,278.5156
20:54:29:082,-0.93,-4.1653,9.6164,49.7341,2.4653,0.5038,-0.9828,280.7188
20:54:29:097,-0.5601,-4.5532,9.5614,51.2944,2.5484,0.3192,-0.7751,282.7656
20:54:29:118,-0.365,-4.9578,9.4225,48.8866,2.6179,0.1427,-0.6685,284.4531
20:54:29:139,-0.4632,-5.2978,9.2381,48.0762,2.6584,-0.0201,-0.6523,285.75
20:54:29:157,-0.6523,-5.5456,9.4895,45.3459,2.6965,-0.0379,-0.635,286.8594
20:54:29:178,-1.0665,-5.7527,9.5961,44.2793,2.7769,0.0683,-0.5473,287.875
20:54:29:198,-1.2784,-5.8676,8.0494,45.7298,2.8831,-0.0142,-0.3596,288.8594
20:54:29:222,-1.2137,-5.6904,6.6871,45.4769,2.6805,-0.2688,-0.1625,290.1875
20:54:29:243,-1.033,-5.3935,6.9445,42.1184,2.1716,-0.4086,0.0026,290.8438
20:54:29:258,-0.8522,-5.2523,7.4533,43.361,1.767,-0.4297,0.0886,291.2344
20:54:29:278,-0.8678,-5.2786,7.0822,43.372,1.5726,-0.2888,0.1019,291.4062
20:54:29:300,-0.96,-5.1517,6.4393,43.8117,1.3707,-0.1066,0.0974,291.4375
20:54:29:324,-1.1503,-5.0631,6.5267,42.9466,0.9918,0.0148,0.0732,291.4375
20:54:29:343,-1.3921,-5.0308,6.8727,45.4244,0.5606,0.0297,0.0668,291.4375
20:54:29:358,-1.6124,-5.0009,7.2952,44.3212,0.1526,0.0135,0.07,291.4219
20:54:29:378,-2.0014,-4.9722,7.5335,44.5116,-0.2045,0.0004,0.0777,291.3906
20:54:29:399,-2.2241,-4.856,7.136,44.4076,-0.8599,-0.0219,0.2231,291.3281
20:54:29:422,-1.938,-4.5077,6.9553,44.7531,-1.2637,-0.1034,0.2913,291.3281
20:54:29:438,-1.4029,-3.981,7.3671,43.3853,-1.5484,-0.1229,0.2852,291.2188
20:54:29:458,-1.4544,-3.7391,8.3607,44.7548,-1.6288,0.0268,0.2748,291.0469
20:54:29:478,-1.8662,-3.7882,8.897,44.9828,-1.6197,0.1815,0.2913,290.5469
20:54:29:498,-2.187,-3.9331,9.2154,44.7372,-1.6687,0.3291,0.3193,289.8906
20:54:29:518,-2.3534,-3.9905,9.5733,44.4688,-1.7521,0.356,0.3547,289.4688
20:54:29:541,-2.193,-3.7679,9.7505,47.1162,-1.8136,0.1674,0.3975,289.0469
20:54:29:563,-1.7919,-3.374,9.3722,47.3909,-1.8363,-0.116,0.4846,288.5625
20:54:29:581,-1.3215,-2.8258,8.4828,48.1493,-1.8354,-0.3506,0.5898,288.0469
20:54:29:598,-1.106,-2.3888,7.5263,47.4989,-1.8285,-0.4515,0.6852,287.5
20:54:29:619,-0.9695,-2.1051,6.9277,47.5687,-1.8134,-0.3809,0.7419,286.7812
20:54:29:642,-0.9731,-2.0213,6.9792,48.6676,-1.7603,-0.214,0.736,285.9062
20:54:29:658,-0.9887,-2.1362,7.3467,44.9934,-1.6815,-0.0909,0.6418,284.9219
20:54:29:679,-1.4328,-2.378,7.5694,44.6326,-1.6794,-0.1229,0.5552,283.9219
20:54:29:703,-2.4575,-2.3481,7.5095,43.4485,-1.8525,-0.2315,0.6356,282.9219
20:54:29:725,-1.786,-2.3493,8.575,42.0851,-1.8437,-0.2153,0.6612,281.2812
20:54:29:742,-2.1307,-2.3685,9.2262,41.5261,-1.8192,-0.0755,0.6958,280.3438
20:54:29:758,-1.9619,-2.1889,9.9133,39.5484,-1.824,-0.0744,0.7003,279.3906
20:54:29:778,-1.6782,-2.1015,10.9213,40.8365,-1.714,-0.0456,0.5904,278.9062
20:54:29:799,-1.6112,-1.9938,11.7233,40.4778,-1.469,-0.055,0.4444,277.9688
20:54:29:819,-1.7548,-1.9028,11.7377,40.8861,-1.2895,-0.1138,0.3115,277.0469
20:54:29:842,-2.1044,-1.9626,11.7497,40.3415,-1.1713,-0.0992,0.2769,276.2812
20:54:29:859,-2.1918,-2.1099,12.2465,40.7682,-1.0267,0.0116,0.2836,275.4844
20:54:29:878,-2.0757,-2.1841,12.7588,38.6715,-0.8306,0.0801,0.246,275.4844
20:54:29:899,-1.8566,-2.0584,12.918,39.4577,-0.6304,-0.002,0.1733,274.7969
20:54:29:918,-2.0026,-1.8932,12.9025,37.7973,-0.4264,-0.1378,0.176,274.4062
20:54:29:941,-2.4288,-2.2021,12.9599,38.9049,-0.225,-0.0664,0.3483,274.125
20:54:29:961,-1.9176,-2.5624,13.0701,38.0849,-0.0865,0.0545,0.4505,273.8594
20:54:29:978,-1.6268,-3.0975,13.7452,38.9317,0.0908,0.042,0.3837,273.5
20:54:29:999,-1.2832,-3.4351,14.1211,38.2792,0.2802,0.059,0.2071,273.0156
20:54:30:019,-0.7313,-3.2388,13.92,38.6688,0.4527,-0.0512,-0.0698,272.5469
20:54:30:043,-0.6415,-2.7264,13.519,38.0244,0.7007,-0.1839,-0.3175,272.2344
20:54:30:059,-1.2616,-2.5025,12.9468,39.9981,1.0205,-0.0683,-0.4019,272.1875
20:54:30:078,-1.7357,-2.8234,12.2991,40.7528,1.2727,0.21,-0.3932,272.4531
20:54:30:100,-0.7624,-3.4135,12.0238,41.3732,1.4192,0.3168,-0.4922,272.9219
20:54:30:126,-0.4273,-3.4746,11.7066,41.6339,1.5939,0.2771,-0.7063,273.5312
20:54:30:142,-0.3638,-3.4985,10.8626,43.6353,1.8269,0.2007,-0.9239,274.2188
20:54:30:160,-0.4308,-3.4674,10.1001,45.9552,2.0384,0.1898,-1.0691,275.1719
20:54:30:179,-0.4368,-3.4423,9.4165,48.6402,2.204,0.2468,-1.1221,275.7344
20:54:30:198,-0.4297,-3.55,8.9173,49.0553,2.3361,0.2489,-1.0933,277.6875
20:54:30:218,-0.3818,-3.7559,8.4493,49.14,2.4315,0.2124,-0.9838,279.2188
20:54:30:244,-0.2992,-4.0911,8.1967,48.7495,2.4658,0.1549,-0.8467,280.7812
20:54:30:263,-0.3902,-4.4167,8.0255,49.4778,2.4501,0.0846,-0.7468,282.1719
20:54:30:279,-0.5051,-4.6597,7.6867,49.8587,2.4102,0.0566,-0.676,283.4531
20:54:30:298,-0.6822,-4.7531,7.336,49.7029,2.3247,0.1243,-0.6115,284.5781
20:54:30:317,-0.845,-4.5963,7.172,50.3597,2.1769,0.2521,-0.5436,285.5938
20:54:30:340,-1.367,-4.3557,7.2988,49.49,2.0038,0.3789,-0.4752,286.4844
20:54:30:358,-2.1188,-4.2371,7.3228,51.1496,1.8666,0.5682,-0.3343,287.3281
20:54:30:378,-2.2864,-4.2479,7.476,52.1024,1.7457,0.8316,-0.0616,288.1094
20:54:30:399,-2.193,-4.6873,7.7717,53.0301,1.5758,0.8947,0.2135,288.75
20:54:30:476,-1.9835,-5.129,7.7645,52.6995,1.2986,0.4878,0.3925,289.1719
20:54:30:476,-1.7991,-5.2319,7.5933,53.7014,0.8852,-0.1849,0.4695,289.25
20:54:30:476,-1.8434,-5.0931,7.4652,51.1901,0.4533,-0.6654,0.5038,288.875
20:54:30:479,-2.0757,-5.0368,7.6472,53.0506,0.1204,-0.7106,0.543,288.4531
20:54:30:502,-2.0685,-5.1948,7.707,50.2339,-0.1017,-0.4286,0.5842,287.9375
20:54:30:516,-1.7955,-5.3361,7.9561,52.4837,-0.315,-0.1146,0.5949,287.3906
20:54:30:542,-1.7417,-5.4366,7.901,53.0262,-0.5771,0.0074,0.515,286.7344
20:54:30:562,-1.1958,-4.886,7.476,53.0161,-0.906,-0.1306,0.4468,286.0156
20:54:30:578,-1.1264,-4.1533,7.5311,53.8492,-1.2956,-0.3945,0.3395,285.375
20:54:30:598,-1.4819,-3.7583,7.6376,52.7945,-1.5449,-0.5756,0.2732,284.8125
20:54:30:618,-1.7177,-3.8158,7.4688,51.5706,-1.6301,-0.5261,0.3179,284.3281
20:54:30:644,-1.8542,-4.1545,7.567,54.1994,-1.7159,-0.2744,0.4026,283.8906
20:54:30:658,-1.9787,-4.3868,8.1823,53.2901,-1.8967,0.0023,0.4268,283.4375
20:54:30:678,-1.7489,-4.2347,9.1603,54.8691,-2.0917,0.2146,0.3946,283.1406
20:54:30:702,-1.6375,-3.8768,9.9863,56.6421,-2.1806,0.3171,0.3342,282.5312
20:54:30:717,-1.4089,-3.2807,10.2413,56.7252,-2.1369,0.3458,0.3094,281.9375
20:54:30:739,-1.209,-2.7288,9.7002,58.2167,-1.9939,0.2289,0.2963,281.4219
20:54:30:759,-1.0497,-2.3577,8.569,58.3425,-1.8677,0.0228,0.3041,280.7031
20:54:30:778,-1.0067,-2.1087,7.877,56.7243,-1.8445,-0.1154,0.3461,280.2344
20:54:30:799,-1.1563,-2.0512,7.9513,56.3272,-1.8807,-0.0132,0.4442,279.75
20:54:30:819,-1.2856,-2.1913,8.2254,53.0249,-1.8427,0.148,0.4524,279.75
20:54:30:841,-1.4077,-2.3912,8.5857,52.7751,-1.8387,0.2508,0.4303,279.1719
20:54:30:859,-1.7357,-2.414,9.0849,52.82,-1.9151,0.1482,0.4316,278.5312
20:54:30:885,-1.695,-2.4714,9.8762,53.0623,-1.9191,-0.0257,0.4415,277.25
20:54:30:897,-1.3502,-2.2775,10.3479,51.7884,-1.8589,-0.0851,0.3946,276.6406
20:54:30:918,-1.288,-2.062,10.7884,52.0256,-1.7518,-0.048,0.2921,276.0312
20:54:30:943,-1.2748,-1.667,11.3762,52.7409,-1.603,-0.1058,0.1685,275.3125
20:54:30:961,-1.4256,-1.424,12.2034,52.7575,-1.3076,-0.2209,0.0636,274.625
20:54:30:979,-1.6722,-1.3761,12.3362,52.4636,-1.0024,-0.2488,-0.0057,274.0781
20:54:30:998,-1.9105,-1.412,12.262,54.001,-0.7875,-0.2691,-0.0813,273.3594
20:54:31:017,-2.1223,-1.5245,12.6223,52.4349,-0.5726,-0.2699,-0.1636,273.1562
20:54:31:042,-2.3426,-1.5449,12.9707,53.4991,-0.327,-0.2766,-0.195,273.0938
20:54:31:059,-2.6299,-1.7496,13.2832,54.1789,-0.0794,-0.28,-0.1143,273.0469
20:54:31:078,-2.5677,-2.0441,13.44,54.1789,0.1393,-0.178,0.0204,273.0781
20:54:31:103,-2.4276,-2.6163,13.8326,52.1624,0.319,0.0092,0.1416,273.125
20:54:31:117,-1.6543,-2.882,14.7161,52.831,0.5478,0.1466,0.0548,273.0938
20:54:31:138,-1.2209,-2.8497,15.4403,53.7952,0.9201,0.071,-0.1982,273.0312
20:54:31:161,-1.3813,-2.8964,15.2799,53.9704,1.3635,0.0372,-0.3511,272.9062
20:54:31:179,-1.8458,-3.3609,14.5485,53.8962,1.7329,0.1951,-0.2728,272.9531
20:54:31:197,-1.7943,-4.139,14.157,54.5248,1.9771,0.41,-0.1415,273.2969
20:54:31:220,-1.0916,-4.8153,13.8266,54.0396,2.1446,0.3504,-0.1607,273.8438
20:54:31:243,-0.2441,-5.056,13.1778,54.4078,2.2669,0.1147,-0.337,274.3906
20:54:31:259,0.0911,-5.0715,12.2489,55.4476,2.3862,-0.0387,-0.5479,274.875
20:54:31:280,0.1462,-4.9051,11.1571,56.1134,2.498,-0.0211,-0.733,275.3906
20:54:31:298,0.0863,-4.6573,10.2054,58.9298,2.6078,0.1003,-0.8624,276.4219
20:54:31:318,0.0312,-4.4514,9.4668,61.4179,2.7148,0.2612,-0.9191,277.3125
20:54:31:343,0.0767,-4.3808,9.0334,64.0468,2.7907,0.3797,-0.9109,278.4688
20:54:31:360,0.0636,-4.6106,8.7485,62.2131,2.7934,0.2819,-0.8701,279.75
20:54:31:377,-0.1028,-4.8393,8.4109,59.9968,2.7127,0.0111,-0.8131,281.0938
20:54:31:401,-0.3327,-4.8764,8.0399,58.8864,2.6059,-0.1855,-0.7458,282.3281
20:54:31:416,-0.5422,-4.8225,7.6077,57.9459,2.5042,-0.2196,-0.6507,283.5469
20:54:31:438,-0.632,-4.8345,7.239,57.3041,2.3761,-0.1365,-0.5559,284.6406
20:54:31:459,-0.7038,-4.9135,6.9265,57.2276,2.2027,-0.0909,-0.4691,285.5625
20:54:31:477,-0.7972,-4.9506,6.6464,57.3703,1.9715,-0.1258,-0.3684,286.4062
20:54:31:498,-0.8594,-4.6585,5.9306,57.4874,1.6743,-0.2393,-0.2413,287.1562
20:54:31:519,-1.021,-4.631,5.7534,58.0631,1.3345,-0.3943,-0.1109,287.75
20:54:31:544,-1.2365,-4.7615,5.6923,57.8942,0.9968,-0.4555,0.0394,288.2344
20:54:31:561,-1.0701,-4.7914,5.8468,56.3304,0.6362,-0.3972,0.1752,288.5469
20:54:31:581,-0.8163,-4.6765,6.3112,56.5015,0.2461,-0.3375,0.2045,288.6875
20:54:31:598,-0.9719,-4.7148,7.0882,57.1731,-0.1111,-0.3221,0.1456,288.5469
20:54:31:617,-1.847,-5.0057,7.6364,58.7796,-0.4024,-0.2686,0.0641,288.4375
20:54:31:642,-2.9555,-5.4127,7.7753,56.0248,-0.7076,-0.178,0.054,288.2656
20:54:31:660,-3.0405,-5.4091,7.5299,58.3345,-1.0988,-0.1069,0.1528,288.1719
20:54:31:677,-1.8327,-4.6932,8.0482,58.2448,-1.6115,-0.1202,0.2966,288.1094
20:54:31:700,-1.185,-4.0767,9.4129,57.7333,-2.0379,-0.1367,0.3262,287.9844
20:54:31:716,-1.6363,-3.8613,10.1443,56.5384,-2.1295,-0.1064,0.2766,287.7031
20:54:31:737,-2.4587,-4.0336,10.1791,59.4564,-2.0482,0.0215,0.2407,287.2656
20:54:31:759,-2.9675,-4.273,10.5382,59.2992,-2.0333,0.2313,0.2841,286.8438
20:54:31:776,-2.8107,-4.2156,11.0865,58.2279,-2.0914,0.5203,0.3757,286.5
20:54:31:798,-2.3905,-3.9666,11.2912,58.4359,-2.1225,0.6473,0.4838,286.1719
20:54:31:819,-1.7513,-3.3321,11.2373,61.8041,-2.1103,0.5762,0.6228,285.7344
20:54:31:843,-1.5813,-2.6115,10.3622,60.6096,-2.0253,0.3187,0.7512,285.2188
20:54:31:859,-1.4376,-2.0812,8.7246,62.904,-1.902,-0.1847,0.9201,284.1719
20:54:31:876,-1.2233,-1.7783,7.3743,62.0226,-1.832,-0.5583,1.1621,283.2344
20:54:31:898,-0.5877,-1.8753,6.9505,61.2466,-1.8301,-0.6081,1.3858,282.0312
20:54:31:917,-0.0502,-2.2392,7.2725,58.8254,-1.7928,-0.3248,1.4716,280.5625
20:54:31:943,0.2024,-2.6905,7.7166,57.8141,-1.6988,0.0244,1.3528,278.7344
20:54:31:960,0.0348,-3.1167,7.822,56.5226,-1.6355,0.2635,1.1075,276.875
20:54:31:978,-0.3674,-3.0735,8.1153,56.5369,-1.7135,0.3251,0.8764,275.2969
20:54:31:997,-0.5314,-2.6893,9.1364,55.5076,-1.9052,0.2979,0.7459,273.9688
20:54:32:017,-0.5937,-2.323,10.1491,55.3985,-1.9886,0.2585,0.6487,272.9062
20:54:32:043,-0.4668,-2.0417,11.0039,56.2656,-1.9247,0.2556,0.5243,271.9531
20:54:32:060,-0.8235,-1.7148,11.3666,53.3193,-1.7199,0.2774,0.3246,271.1406
20:54:32:076,-1.4017,-1.7759,11.7066,54.1192,-1.4828,0.3214,0.1691,270.4062
20:54:32:098,-1.4975,-1.8585,12.5386,56.0892,-1.3148,0.3528,0.1448,270.1406
20:54:32:117,-1.6423,-2.0285,13.4424,54.0866,-1.1569,0.2998,0.1174,269.8125
20:54:32:146,-1.8398,-2.159,13.8697,54.3235,-0.9228,0.1168,0.0684,269.6094
20:54:32:164,-1.9895,-2.3493,14.102,53.7965,-0.6463,0.0124,0.0764,269.4219
20:54:32:180,-1.9572,-2.7647,14.6347,53.4626,-0.3973,0.0707,0.1658,269.2031
20:54:32:198,-1.2724,-3.1178,15.2117,53.0704,0.0597,0.1528,0.2561,269.0312
20:54:32:218,-0.5158,-2.9,15.7851,52.3537,0.359,-0.1551,0.0338,268.8125
20:54:32:245,-0.3674,-2.7276,15.718,53.0673,0.7904,-0.4358,-0.1993,268.8125
20:54:32:261,-1.0509,-2.9479,14.9758,53.66,1.2376,-0.3916,-0.2488,268.5469
20:54:32:279,-1.2748,-3.6733,14.3701,52.5182,1.5774,-0.1194,-0.215,268.3438
20:54:32:296,-0.7241,-4.3748,13.9499,52.0848,1.8088,-0.0563,-0.3194,268.2969
20:54:32:317,0.0875,-4.5951,13.2975,52.0693,1.9801,-0.2512,-0.6099,268.7188
20:54:32:338,0.4239,-4.4418,12.3434,52.4239,2.154,-0.4401,-0.9524,269.125
20:54:32:362,0.1067,-4.2539,11.205,54.1181,2.342,-0.4041,-1.194,269.7031
20:54:32:378,-0.274,-4.2359,10.1408,54.7808,2.5002,-0.1546,-1.2984,270.5156
20:54:32:396,-0.3267,-4.1964,9.304,56.0442,2.599,0.0782,-1.3508,271.7031
20:54:32:417,-0.2908,-4.1007,8.8563,59.3264,2.6696,0.2031,-1.3705,273.1719
20:54:32:443,-0.1962,-4.212,8.8634,58.9992,2.7798,0.2236,-1.3652,275.625
20:54:32:461,-0.5733,-4.358,8.2302,56.8221,2.7777,0.0944,-1.2776,277.4219
20:54:32:479,-0.8295,-4.4131,7.7741,54.3368,2.652,-0.063,-1.134,279.2344
20:54:32:545,-0.9312,-4.4933,7.7873,53.9295,2.5641,-0.0899,-0.9916,280.9844
20:54:32:545,-1.0916,-4.6884,7.7741,53.3565,2.4933,-0.0022,-0.8539,282.4531
20:54:32:546,-1.1874,-4.9734,7.6652,51.8203,2.3766,0.0249,-0.7055,283.8281
20:54:32:558,-1.13,-5.2559,7.4425,51.7657,2.1721,-0.0536,-0.5537,284.4375
20:54:32:580,-0.8917,-5.354,7.1289,51.5252,1.8927,-0.1748,-0.444,285.5625
20:54:32:596,-0.7517,-5.2188,6.8009,51.1051,1.584,-0.3202,-0.375,286.4375
20:54:32:619,-0.7804,-4.9626,6.4154,50.3562,1.2525,-0.4233,-0.3074,287.1875
20:54:32:643,-0.9636,-4.8273,6.1724,51.322,0.9276,-0.4401,-0.2001,287.7969
20:54:32:660,-1.0725,-4.8022,6.0299,49.8306,0.5832,-0.3863,-0.1106,288.2812
20:54:32:678,-1.0881,-4.8393,6.0239,51.2014,0.2099,-0.3221,-0.0722,288.7031
20:54:32:700,-0.96,-4.9063,6.3232,51.0851,-0.1635,-0.2475,-0.0967,288.9844
20:54:32:716,-1.2904,-4.9578,7.0331,50.3284,-0.4892,-0.1229,-0.1212,289.2031
20:54:32:736,-2.0793,-5.1014,7.6472,50.5388,-0.7968,0.0188,-0.0432,289.2969
20:54:32:761,-3.1399,-5.4761,8.1236,51.6633,-1.1537,0.1831,0.1941,289.4375
20:54:32:778,-3.5086,-5.7934,8.1811,50.3295,-1.62,0.2755,0.5557,289.5312
20:54:32:798,-2.0469,-5.4151,8.6324,50.422,-2.0935,0.1922,0.7206,289.4375
20:54:32:820,-0.5494,-4.6406,10.1623,53.0567,-2.2562,0.0659,0.5752,288.9688
20:54:32:844,-0.1806,-3.9235,11.5282,52.089,-2.0682,0.055,0.2737,288.1719
20:54:32:859,-1.0521,-3.4782,11.7425,52.3527,-1.7308,0.2087,0.0378,287.3281
20:54:32:878,-2.4958,-3.2962,11.1499,52.8487,-1.534,0.4686,0.0351,286.75
20:54:32:897,-2.7377,-3.0831,10.5981,54.5635,-1.5063,0.5728,0.2314,286.5469
20:54:32:917,-2.2756,-2.7683,10.1432,53.2654,-1.4837,0.4556,0.483,286.5156
20:54:32:944,-2.3139,-2.3014,9.3626,55.9755,-1.4805,0.1501,0.7299,286.3594
20:54:32:961,-1.5166,-2.2057,8.3319,54.6074,-1.4996,-0.3591,1.0221,285.9375
20:54:32:978,-1.1443,-1.9375,7.3048,56.2946,-1.4466,-0.7319,1.2434,285.25
20:54:32:996,-0.881,-1.6382,6.5375,55.3015,-1.3731,-0.8017,1.352,284.1406
20:54:33:016,-0.5889,-2.0357,6.6249,53.4487,-1.3073,-0.4997,1.3989,282.6406
20:54:33:037,-0.3363,-2.4547,6.9373,54.0838,-1.2328,-0.0502,1.3374,281.0156
20:54:33:061,-0.2956,-2.9586,6.9337,52.0145,-1.1619,0.2034,1.1952,279.2031
20:54:33:082,-0.7122,-3.0819,7.4365,50.9917,-1.2634,0.2604,1.0452,277.5
20:54:33:096,-1.2724,-2.8557,7.9944,51.3905,-1.4397,0.1485,0.9888,275.9844
20:54:33:117,-1.3335,-2.6725,8.6971,50.4872,-1.6165,-0.035,1.0255,274.7656
20:54:33:136,-1.367,-2.5791,9.4201,51.1385,-1.6978,-0.1341,1.0511,273.5781
20:54:33:157,-0.869,-2.4523,10.0522,51.8865,-1.6916,-0.1436,1.0575,272.3125
20:54:33:176,-0.8953,-2.4271,10.5214,50.5683,-1.5683,-0.0632,0.9299,271.0156
20:54:33:202,-1.2413,-2.5229,10.9931,50.7292,-1.4187,-0.0086,0.7723,269.5938
20:54:33:215,-1.5477,-2.6953,11.7425,50.7292,-1.2978,0.0963,0.6836,268.2344
20:54:33:239,-1.5585,-2.9335,12.5134,50.9489,-1.1737,0.1938,0.6442,267.0938
20:54:33:260,-1.4927,-3.1322,13.0258,50.724,-1.0338,0.1933,0.5997,266.1875
20:54:33:282,-1.4484,-3.3237,13.3634,50.8913,-0.8847,0.1094,0.5419,265.3438
20:54:33:297,-1.2509,-3.4375,13.8578,50.3702,-0.7617,0.0489,0.498,264.5625
20:54:33:317,-0.9755,-3.4195,14.5042,50.727,-0.6056,0.0577,0.4173,263.5312
20:54:33:338,-0.4308,-2.7695,15.0345,51.2372,-0.4,0.0974,0.2628,262.875
20:54:33:361,-0.5996,-1.9447,14.9926,52.4294,-0.0826,-0.0273,-0.0576,262.3281
20:54:33:376,-1.3011,-1.6394,14.4384,52.0839,0.3587,-0.288,-0.321,262.0312
20:54:33:402,-1.859,-2.3541,13.9799,53.5034,0.8432,-0.3229,-0.3031,262.0781
20:54:33:415,-1.6064,-3.38,13.7129,53.1688,1.2637,-0.0819,-0.0872,262.375
20:54:33:438,-0.9013,-4.0552,13.4148,54.6957,1.5393,0.0201,-0.0083,262.6875
20:54:33:460,-0.3806,-4.1665,12.924,53.7868,1.6972,-0.244,-0.1945,262.9375
20:54:33:477,-0.4751,-4.042,12.1531,54.8595,1.8397,-0.5498,-0.497,263.1562
20:54:33:502,-0.5613,-3.9223,11.126,55.59,2.0339,-0.5833,-0.7346,263.5312
20:54:33:515,-0.5961,-3.8445,10.1563,57.4233,2.2453,-0.4166,-0.9218,264.1094
20:54:33:537,-0.6571,-3.732,9.4728,58.5749,2.4179,-0.2009,-1.0707,264.5156
20:54:33:562,-0.8462,-3.6553,9.0035,59.7363,2.5489,-0.0188,-1.1492,265
20:54:33:579,-0.9959,-3.6936,8.8299,61.73,2.6363,0.0753,-1.1357,267.4844
20:54:33:597,-1.5418,-3.8565,8.3032,59.3368,2.7135,0.0902,-1.0802,269.0156
20:54:33:617,-1.8686,-3.9355,7.9213,60.9262,2.5684,-0.2201,-0.7082,270.5469
20:54:33:638,-1.92,-4.1917,7.9034,59.3164,2.453,-0.2819,-0.4794,271.9375
20:54:33:664,-1.7704,-4.5149,7.8256,58.7466,2.3449,-0.222,-0.3002,273.1875
20:54:33:677,-1.422,-4.8046,7.5586,57.181,2.1859,-0.1916,-0.2065,274.1406
20:54:33:696,-0.9671,-4.8728,7.4593,56.6731,1.991,-0.1889,-0.211,274.8281
20:54:33:717,-1.1084,-4.8465,7.3779,57.0335,1.8027,-0.2595,-0.1998,275.2656
20:54:33:743,-1.4651,-4.6884,6.8894,57.6699,1.5332,-0.3453,-0.133,275.6094
20:54:33:761,-1.7836,-4.6765,6.7709,56.2333,1.2405,-0.3708,-0.0328,275.9688
20:54:33:778,-2.0026,-4.789,6.6009,56.8792,0.9342,-0.3479,0.078,276.2656
20:54:33:796,-1.9344,-4.9662,6.4441,56.7363,0.5822,-0.2664,0.1387,276.5
20:54:33:820,-1.7908,-5.2786,6.4848,57.2079,0.2019,-0.1239,0.1256,276.6094
20:54:33:843,-1.695,-5.6473,6.6309,56.1905,-0.1955,0.1434,0.0364,276.5781
20:54:33:861,-1.9057,-5.9095,7.1001,55.0354,-0.6165,0.4484,-0.0837,276.375
20:54:33:879,-2.4695,-6.0843,7.403,57.2918,-1.0938,0.5448,-0.1162,276.2812
20:54:33:895,-2.1559,-5.7036,7.3168,57.0371,-1.6501,0.4428,-0.1149,276.2812
20:54:33:920,-1.4221,-4.8022,7.6843,56.4853,-2.1196,0.2207,-0.162,276.3438
20:54:33:944,-1.3849,-3.8205,8.9006,57.3386,-2.326,0.0912,-0.2925,276.3906
20:54:33:961,-2.7197,-2.9251,10.1108,59.1919,-2.2184,0.1631,-0.4051,276.4375
20:54:33:978,-5.1678,-2.5444,10.3778,58.7122,-1.8914,0.1277,-0.1836,276.5469
20:54:33:996,-6.7671,-2.6246,8.9712,59.7777,-1.7825,0.0633,0.4458,276.6719
20:54:34:017,-6.5421,-3.1526,7.6783,60.2364,-2.1217,0.2843,1.2167,277.0312
20:54:34:036,-5.0181,-3.6386,8.4516,61.0556,-2.5084,0.5602,1.7824,277.1406
20:54:34:060,-3.1471,-3.981,10.4616,61.3777,-2.5132,0.4127,2.0117,276.5312
20:54:34:079,-1.1395,-3.8936,11.2636,62.674,-2.2144,-0.0483,1.939,275.0312
20:54:34:102,0.2204,-3.5608,10.3275,61.8482,-1.9215,-0.4305,1.7305,272.8906
20:54:34:115,0.8141,-2.967,8.8575,62.0618,-1.7457,-0.4765,1.498,268.125
20:54:34:137,0.6454,-2.3673,8.053,61.4274,-1.5928,-0.325,1.2833,266.9688
20:54:34:163,0.3389,-2.1123,7.7537,60.7394,-1.407,-0.1029,1.0703,264.8281
20:54:34:182,0.0659,-2.153,7.5071,60.4883,-1.2682,0.1203,0.8705,263.0781
20:54:34:201,-0.3866,-2.2978,7.2785,61.9537,-1.2509,0.3006,0.7113,261.5156
20:54:34:215,-0.9348,-2.6151,7.555,60.1026,-1.3364,0.3855,0.6388,260.2656
20:54:34:236,-0.7373,-2.7228,8.2637,61.0627,-1.3598,0.4447,0.5195,259.3438
20:54:34:262,-0.7206,-2.6019,8.6228,59.8079,-1.3678,0.4364,0.3187,258.5156
20:54:34:279,-1.1024,-2.4056,8.9868,59.9023,-1.407,0.3171,0.115,257.7969
20:54:34:296,-2.6311,-1.9172,10.2988,60.1249,-1.3651,0.2183,0.0239,257.2812
20:54:34:317,-3.0908,-1.9076,10.8004,61.5972,-1.2671,0.1035,0.0982,256.9688
20:54:34:337,-3.0309,-2.0632,11.5689,59.9411,-1.1955,-0.0701,0.279,256.7812
20:54:34:359,-2.7089,-2.1326,12.3602,60.1924,-1.1231,-0.2582,0.438,256.5938
20:54:34:378,-2.3342,-2.0476,12.942,59.8349,-0.9702,-0.4616,0.5288,256.2031
20:54:34:395,-2.3989,-2.3493,13.5621,61.9815,-0.726,-0.6169,0.5629,255.5312
20:54:34:416,-2.2373,-2.8581,13.9846,61.4429,-0.404,-0.5948,0.6407,254.6562
20:54:34:437,-1.9847,-3.5392,14.2181,61.1971,-0.0762,-0.455,0.6868,253.1875
20:54:34:461,-1.4173,-3.6817,13.9679,61.8742,0.1949,-0.4078,0.6178,252.125
20:54:34:477,-1.2928,-3.289,13.7021,62.2818,0.3707,-0.5841,0.3829,251.625
20:54:34:495,-1.4496,-2.7587,13.5166,62.3464,0.5382,-0.8291,0.1158,250.7344
20:54:34:515,-1.9775,-2.7072,13.3634,61.7617,0.8189,-0.9445,-0.0765,250
20:54:34:536,-2.4192,-3.2603,13.0306,62.7222,1.2027,-0.7807,-0.138,249.5
20:54:34:561,-2.357,-3.9427,12.4619,61.2054,1.5545,-0.4891,-0.1356,249.2188
20:54:34:627,-1.8734,-4.4215,12.1208,60.1505,1.7484,-0.3104,-0.1884,249.1719
20:54:34:627,-1.3167,-4.5747,11.7533,62.8086,1.841,-0.2699,-0.3087,249.2656
20:54:34:627,-0.9743,-4.4718,11.2146,63.7573,1.9079,-0.3642,-0.4656,249.5156
20:54:34:639,-0.881,-4.1964,10.6555,63.5791,1.9793,-0.4331,-0.636,249.9062
20:54:34:661,-1.0593,-3.9043,9.9504,65.8505,2.0903,-0.4193,-0.8078,250.4688
20:54:34:680,-1.4376,-3.7224,9.4045,66.7204,2.2323,-0.3093,-0.9343,251.1875
20:54:34:695,-1.7309,-3.7332,8.952,68.5652,2.3665,-0.1173,-0.9482,252.0938
20:54:34:722,-1.7117,-3.8744,8.6049,66.5608,2.4565,-0.0044,-0.8608,253.7656
20:54:34:735,-1.9955,-3.9151,8.2158,64.821,2.4706,-0.0286,-0.7796,255
20:54:34:755,-1.9224,-3.9271,7.9656,65.7653,2.4014,-0.1591,-0.6283,256.1094
20:54:34:779,-1.9284,-4.0312,7.634,63.1327,2.2908,-0.3245,-0.4893,257.1719
20:54:34:799,-1.8614,-4.1354,7.0738,62.4286,2.1774,-0.4888,-0.3604,258.0312
20:54:34:816,-1.7261,-4.1737,6.5375,63.1276,2.0291,-0.5106,-0.2427,258.7031
20:54:34:835,-1.6172,-4.1737,6.1101,60.4958,1.8413,-0.4526,-0.1585,259.1719
20:54:34:860,-1.5082,-4.1222,5.7462,62.6338,1.6109,-0.3836,-0.0991,259.5156
20:54:34:880,-1.6028,-4.0983,5.5499,61.04,1.3364,-0.3378,-0.0461,259.7656
20:54:34:896,-1.75,-4.1031,5.2279,61.4776,1.0352,-0.2931,0.0194,259.9219
20:54:34:921,-1.8219,-4.1186,4.919,61.1145,0.6962,-0.2451,0.1169,260.0312
20:54:34:935,-1.7692,-4.0564,5.022,60.9183,0.2895,-0.1783,0.2271,260.0312
20:54:34:957,-1.4963,-3.8972,5.9856,61.2568,-0.1289,-0.023,0.3216,260.0156
20:54:34:978,-1.9368,-4.139,7.2306,59.6593,-0.4338,0.2604,0.3224,259.8438
20:54:34:998,-2.8179,-4.7926,7.8663,59.9803,-0.8887,0.9203,0.4125,259.3438
20:54:35:016,-3.3673,-5.6042,8.3307,61.3244,-1.3492,0.9989,0.5874,258.9531
20:54:35:036,-2.6934,-6.0843,8.7844,61.2473,-1.9364,0.7773,0.7371,258.5625
20:54:35:063,-0.9731,-5.6796,9.5242,62.3097,-2.4424,0.3062,0.6404,258.0469
20:54:35:077,0.0923,-4.6322,10.5945,61.194,-2.558,-0.0273,0.3917,257.2969
20:54:35:095,-0.2884,-3.7116,10.9117,62.7582,-2.3359,0.0577,0.2351,256.3906
20:54:35:115,-1.6172,-3.4399,10.3562,62.7487,-2.1348,0.4396,0.2732,255.5
20:54:35:135,-2.3869,-3.641,10.1252,65.1038,-2.1156,0.7626,0.3888,254.875
20:54:35:162,-2.3857,-3.8229,10.8075,65.5318,-2.1478,0.8846,0.4921,254.4531
20:54:35:178,-2.1271,-3.7667,11.7808,65.4759,-2.1183,0.7232,0.5744,254.0625
20:54:35:195,-1.7812,-3.4279,12.4344,65.485,-1.9468,0.2865,0.6881,253.5469
20:54:35:220,-1.5741,-2.8497,11.6072,64.535,-1.7548,-0.2923,0.8852,252.2188
20:54:35:234,-1.3466,-2.2464,9.9253,64.3311,-1.648,-0.7817,1.1262,251.2812
20:54:35:255,-0.9456,-1.7759,8.5211,63.0726,-1.5649,-0.9357,1.2881,250.6875
20:54:35:277,-0.4476,-1.5927,7.9333,61.5041,-1.424,-0.8044,1.2836,249.1875
20:54:35:297,-0.0406,-1.6215,7.8028,63.2684,-1.2293,-0.557,1.1121,247.4531
20:54:35:321,-0.1459,-1.7843,7.4557,60.0499,-1.0749,-0.3338,0.8924,245.5469
20:54:35:335,-0.5039,-1.9435,7.0091,62.5228,-1.0698,-0.1359,0.7366,243.8125
20:54:35:356,-1.0545,-2.1075,7.2629,62.0451,-1.1649,-0.0478,0.6926,242.4688
20:54:35:379,-1.4412,-2.22,7.98,62.0451,-1.2653,-0.0851,0.6958,241.3594
20:54:35:396,-1.5549,-2.2296,8.8036,61.0637,-1.3145,-0.1546,0.6825,240.875
20:54:35:416,-1.5334,-2.0847,9.6176,61.6767,-1.2685,-0.2307,0.6245,239.9219
20:54:35:436,-1.5777,-1.91,10.3203,62.7498,-1.1295,-0.3021,0.5707,238.9844
20:54:35:461,-1.6076,-1.8262,10.7525,62.2836,-0.955,-0.3807,0.5304,237.9844
20:54:35:479,-1.7477,-1.9603,10.9344,62.1882,-0.7902,-0.4014,0.5078,237.0156
20:54:35:495,-1.7764,-2.2703,11.1415,64.635,-0.6591,-0.3445,0.4583,236.1406
20:54:35:515,-1.6268,-2.5959,11.5378,62.5161,-0.5449,-0.2544,0.3472,235.25
20:54:35:537,-1.4867,-2.6809,12.1315,63.0547,-0.4064,-0.2169,0.2026,234
20:54:35:560,-1.8027,-2.9371,12.8091,62.7,-0.2237,-0.169,0.1661,233.3438
20:54:35:578,-1.5836,-3.0879,13.1599,62.0939,-0.0615,-0.1458,0.1555,232.875
20:54:35:602,-1.5537,-3.2938,13.5202,63.3169,0.1182,-0.1679,0.1315,232.5469
20:54:35:614,-1.276,-3.4698,13.5465,60.6253,0.2988,-0.1469,0.0607,232.2812
20:54:35:635,-0.9755,-3.5069,13.5776,59.6106,0.489,-0.1447,-0.1007,232.0625
20:54:35:659,-0.5805,-3.3333,13.5154,61.2402,0.7302,-0.1911,-0.3447,231.9062
20:54:35:681,-0.5793,-3.0113,13.1036,60.2693,1.0269,-0.2784,-0.6201,231.9219
20:54:35:696,-1.6543,-3.4602,11.873,59.5329,1.3316,-0.1727,-0.7218,232.1562
20:54:35:715,-1.3682,-3.9738,11.861,60.7462,1.5481,0.1075,-0.6968,232.75
20:54:35:735,-0.9193,-4.3413,11.9328,57.129,1.6919,0.2918,-0.7199,233.5938
20:54:35:761,-0.6918,-4.4143,11.5402,59.3928,1.8256,0.2353,-0.8288,234.5156
20:54:35:779,-0.8427,-4.3209,10.9512,56.6928,1.9433,0.1152,-0.937,235.5625
20:54:35:794,-1.0761,-4.139,10.3539,57.9776,2.0379,0.0718,-0.986,236.7344
20:54:35:815,-1.1252,-3.8876,9.8223,58.4551,2.1359,0.0683,-0.9798,238
20:54:35:836,-1.124,-3.7391,9.4704,61.117,2.2464,0.1128,-0.917,239.9375
20:54:35:860,-1.3394,-3.7368,9.2741,59.9408,2.3596,0.1727,-0.8105,241.2656
20:54:35:878,-1.4436,-3.8792,8.9389,58.0019,2.4618,0.181,-0.676,242.5312
20:54:35:895,-1.5453,-4.0648,8.6767,56.5427,2.5071,0.1072,-0.5428,243.0625
20:54:35:915,-1.6603,-4.3233,8.4768,56.0002,2.4871,0.001,-0.4195,244.1562
20:54:35:935,-1.8865,-4.534,8.2541,54.9427,2.4187,-0.0845,-0.2997,245.0781
20:54:35:956,-2.1116,-4.6801,7.8974,51.0673,2.322,-0.0973,-0.1886,245.7969
20:54:35:975,-2.0853,-4.6358,7.1241,50.9758,2.1857,-0.0938,-0.0645,246.3906
20:54:35:996,-1.7524,-4.3987,6.4764,51.514,1.9484,-0.1618,0.0527,246.8438
20:54:36:015,-1.3694,-4.0779,6.1376,50.0293,1.6357,-0.2534,0.1509,247.1406
20:54:36:035,-1.2712,-3.8624,5.8408,49.0861,1.347,-0.3389,0.2135,247.2812
20:54:36:055,-0.7912,-3.4387,5.7821,48.3222,1.0855,-0.3298,0.2545,247.2812
20:54:36:077,-0.3123,-2.8449,6.5902,48.6106,0.783,-0.0441,0.2402,247.1719
20:54:36:094,-0.0621,-2.8114,7.6975,46.9299,0.5316,0.2675,0.1999,246.8906
20:54:36:115,0.2228,-3.0508,8.4169,48.6339,0.3297,0.3847,0.1885,246.6562
20:54:36:133,-0.6751,-3.4662,8.9066,46.9287,0.0865,0.2433,0.0934,246.4531
20:54:36:155,-1.8027,-3.6242,8.5618,46.1488,-0.1854,0.0492,-0.0065,246.25
20:54:36:175,-1.4987,-2.8772,7.6999,47.304,-0.5119,-0.0741,0.0186,246.1406
20:54:36:195,-0.8702,-1.7831,7.9884,46.0309,-0.9305,-0.1988,0.0359,246.125
20:54:36:215,-1.3622,-1.3186,9.0143,46.3169,-1.1731,-0.2747,0.0218,246.0781
20:54:36:236,-2.6503,-1.7412,8.7797,46.8901,-1.0538,-0.1711,0.1134,245.9844
20:54:36:262,-3.3841,-2.5923,7.4042,47.8539,-0.8959,-0.0158,0.3438,245.8906
20:54:36:280,-3.0489,-3.0999,6.7182,47.5264,-1.093,0.0859,0.6514,245.7031
20:54:36:296,-2.4097,-3.3836,7.7154,45.535,-1.5843,0.0766,0.8508,245.2656
20:54:36:316,-2.3414,-3.562,9.6057,47.3107,-1.9915,0.1269,0.9464,244.4531
20:54:36:336,-2.8897,-4.1114,10.4807,46.9772,-2.0488,0.3147,1.0609,243.375
20:54:36:360,-2.9436,-4.6908,10.1623,48.6354,-1.9809,0.4715,1.2793,242.7969
20:54:36:380,-2.0805,-4.8153,9.9289,49.1805,-2.1039,0.4209,1.4929,241.5938
20:54:36:402,-1.0581,-4.3545,9.9025,50.5888,-2.3412,0.148,1.5741,239.3438
20:54:36:415,-0.438,-3.7547,9.371,50.563,-2.3771,-0.3309,1.4538,237.5938
20:54:36:435,0.0648,-3.143,8.5462,49.6695,-2.2842,-0.252,1.3286,237.5938
20:54:36:462,0.3425,-2.6246,8.065,46.7615,-2.2014,-0.0688,1.1275,235.5938
20:54:36:479,0.3796,-2.1937,7.9788,44.382,-2.0994,0.0966,0.8934,233.5781
20:54:36:496,0.1438,-1.813,7.9956,44.011,-1.9881,0.2241,0.7206,229.9219
20:54:36:515,-0.1759,-1.582,8.0806,44.5111,-1.9148,0.3277,0.6564,228.375
20:54:36:534,-0.347,-1.406,8.4277,42.3332,-1.8938,0.3528,0.6378,227.1406
20:54:36:557,-0.5434,-1.3138,9.2274,44.281,-1.8781,0.2561,0.6106,226.2031
20:54:36:579,-0.6655,-1.163,10.209,44.4632,-1.7849,0.1155,0.5477,225.3125
20:54:36:597,-0.7529,-1.0134,11.023,41.9211,-1.5974,0.0204,0.4436,224.4375
20:54:36:614,-1.1623,-0.9116,11.46,43.0808,-1.3731,-0.0137,0.3965,223.5625
20:54:36:705,-1.44,-0.9284,11.6144,43.9246,-1.1982,-0.0544,0.38,222
20:54:36:706,-1.3658,-1.0504,11.934,42.9548,-1.0639,-0.1138,0.3147,221.6562
20:54:36:706,-1.5753,-1.3653,12.6451,45.0647,-0.8629,-0.0915,0.2234,221.0312
20:54:36:706,-1.5477,-1.5233,13.1706,45.414,-0.6243,-0.0193,0.1171,220.3906
20:54:36:713,-1.926,-1.6885,13.7548,44.5384,-0.3478,-0.0875,0.0505,219.875
20:54:36:738,-2.1846,-2.2523,13.8901,44.1196,-0.1209,-0.0883,0.1166,219.5156
20:54:36:762,-1.8674,-2.6498,14.0601,42.7958,0.0221,-0.1772,0.1179,219.3594
20:54:36:775,-1.6315,-3.0963,14.5461,42.3236,0.2301,-0.2273,0.0436,219.1875
20:54:36:795,-1.0306,-2.985,14.7448,42.0279,0.5111,-0.1764,-0.2232,219.0781
20:54:36:815,-0.9707,-2.4439,14.9567,41.046,0.9143,-0.207,-0.5793,218.875
20:54:36:833,-1.7644,-2.2571,14.6706,41.4689,1.4264,-0.1895,-0.7058,218.7656
20:54:36:856,-2.6682,-3.0281,14.0397,40.4894,1.8751,0.1586,-0.4951,219.0312
20:54:36:878,-2.6168,-4.2299,13.5465,40.3511,2.1188,0.5927,-0.2251,219.75
20:54:36:895,-1.9739,-5.4725,13.6471,40.4113,2.2315,0.6321,-0.1396,220.6562
20:54:36:914,-0.7888,-6.0735,13.4711,40.1808,2.2469,0.2897,-0.3178,221.5469
20:54:36:935,-0.3051,-5.9873,12.9037,41.2143,2.2799,-0.0057,-0.5705,222.7031
20:54:36:961,-0.4536,-5.5779,11.9699,43.9526,2.3894,0.0068,-0.7372,223.3906
20:54:36:978,-0.7421,-5.1745,10.8578,44.0654,2.509,0.2116,-0.8182,224.2812
20:54:36:996,-0.8977,-4.9195,10.1731,44.3382,2.6214,0.5035,-0.815,225.375
20:54:37:014,-0.6966,-4.8321,9.7349,46.2127,2.7095,0.6004,-0.7873,226.5781
20:54:37:034,-0.4512,-4.7627,9.3148,44.4476,2.706,0.3682,-0.7708,227.9531
20:54:37:055,-0.6679,-4.6022,8.7509,42.8098,2.623,-0.011,-0.7005,229.3438
20:54:37:077,-1.2281,-4.2755,8.1344,44.0219,2.5329,-0.2811,-0.5404,230.7188
20:54:37:095,-1.5705,-3.8948,7.172,42.7264,2.4743,-0.3564,-0.3258,231.9062
20:54:37:114,-1.3718,-4.042,6.9038,44.7561,2.4208,-0.3024,-0.1191,232.9531
20:54:37:134,-1.1659,-4.212,6.8499,43.4879,2.3316,-0.2499,0.0295,233.75
20:54:37:154,-1.1515,-4.382,6.5207,41.8025,2.2253,-0.2781,0.1097,234.25
20:54:37:179,-1.2987,-4.4849,6.0622,42.9596,2.0701,-0.3681,0.1557,234.5781
20:54:37:195,-1.7393,-4.5891,5.4972,42.5814,1.8349,-0.4339,0.1893,234.7656
20:54:37:220,-1.9715,-4.6956,5.083,41.9258,1.5095,-0.4044,0.2844,234.8594
20:54:37:233,-1.9356,-4.8058,5.3093,40.9947,1.0693,-0.2688,0.4431,234.8906
20:54:37:255,-1.1264,-4.7232,5.8228,42.1104,0.5824,-0.1029,0.6154,234.8438
20:54:37:279,-0.8941,-4.5448,6.8368,41.1506,0.0983,-0.0795,0.6258,234.5938
20:54:37:296,-1.9164,-4.4263,7.6376,41.0161,-0.3017,-0.0965,0.4588,233.75
20:54:37:314,-3.6594,-4.2778,8.1799,39.0231,-0.6069,-0.011,0.3051,233.3906
20:54:37:334,-5.084,-4.4059,7.7861,40.1441,-0.8932,0.2683,0.2945,232.75
20:54:37:355,-3.924,-3.8433,7.1827,41.9497,-1.3145,0.4154,0.531,232.3281
20:54:37:377,-2.1188,-3.0508,8.3487,41.3241,-1.9913,0.3496,0.7275,231.9375
20:54:37:396,-1.4472,-2.4774,10.1803,42.1837,-2.4477,0.1195,0.7145,231.3438
20:54:37:414,-2.2241,-2.4475,10.7381,42.1405,-2.3992,0.0066,0.5797,230.4688
20:54:37:435,-3.0585,-2.8377,9.559,41.8819,-2.0682,0.2204,0.5613,229.375
20:54:37:455,-3.0836,-3.2352,8.8168,42.8746,-1.9841,0.5152,0.6162,228.375
20:54:37:479,-2.2899,-3.2639,9.4919,43.6642,-2.2157,0.671,0.6505,227.5156
20:54:37:497,-1.5968,-3.1586,10.2796,44.844,-2.3969,0.6321,0.6458,226.7031
20:54:37:514,-1.0354,-2.9562,9.9624,44.844,-2.3414,0.4657,0.6207,225.2812
20:54:37:534,-0.8594,-2.7874,8.9832,45.2901,-2.2147,0.283,0.568,224.2969
20:54:37:554,-0.7804,-2.6043,8.2074,46.5874,-2.1614,0.1983,0.5086,223.375
20:54:37:578,-0.8175,-2.4499,8.1021,43.8918,-2.1763,0.2556,0.4484,222.4688
20:54:37:596,-0.8989,-2.4475,8.3714,42.228,-2.1793,0.3696,0.3914,221.5938
20:54:37:614,-1.0713,-2.6653,8.9305,40.127,-2.1609,0.4385,0.3619,220.8438
20:54:37:640,-1.197,-3.0269,9.4237,40.6749,-2.1401,0.3914,0.3723,220.1406
20:54:37:662,-1.2808,-3.2591,9.6643,40.6236,-2.1542,0.1725,0.4199,219.4688
20:54:37:679,-1.1814,-3.2423,10.0438,41.7407,-2.2235,-0.0781,0.5179,218.8281
20:54:37:696,-0.8522,-2.955,10.5681,41.3189,-2.2565,-0.1777,0.65,218
20:54:37:715,-0.5649,-2.5995,11.2062,40.4266,-2.183,-0.1349,0.7368,216.9844
20:54:37:735,-0.3818,-2.3517,11.7197,42.0592,-1.9814,0.0359,0.7259,215.75
20:54:37:755,-0.3483,-2.0764,12.0166,41.2865,-1.7004,0.2329,0.6143,214.5
20:54:37:778,-0.7241,-1.6478,11.8562,41.1742,-1.4229,0.2348,0.4186,213.2969
20:54:37:795,-1.4915,-1.3557,11.4432,41.0071,-1.0144,-0.3503,0.2127,212.7812
20:54:37:815,-1.956,-1.248,11.0793,41.17,-0.897,-0.4773,0.2298,211.6719
20:54:37:834,-2.1487,-1.1989,11.2002,41.0176,-0.7681,-0.4318,0.1856,211.0938
20:54:37:856,-2.1942,-1.145,11.5426,39.8848,-0.5795,-0.3439,0.0527,209.8125
20:54:37:878,-2.5617,-1.1761,11.9795,40.8913,-0.3566,-0.2502,-0.0344,209.2344
20:54:37:898,-2.8191,-1.503,12.347,41.3009,-0.1614,-0.0454,0.0018,209.2344
20:54:37:914,-2.6012,-1.9926,13.0629,41.9097,0.016,0.1474,0.0138,208.8906
20:54:37:934,-2.3259,-2.6989,14.1295,41.1163,0.2309,0.3267,-0.0222,208.6719
20:54:37:954,-1.2808,-2.6163,14.8561,40.886,0.498,0.2462,-0.2464,208.7344
20:54:37:980,-1.0773,-2.2092,15.2117,40.5733,0.9055,-0.1434,-0.4816,208.8125
20:54:38:000,-1.6351,-2.22,14.6275,40.1342,1.3649,-0.2315,-0.5117,209.1875
20:54:38:014,-1.914,-2.9167,13.8338,39.2707,1.7505,0.132,-0.5029,209.7812
20:54:38:037,-1.7979,-3.8349,13.6914,39.2598,2.0834,0.6508,-0.6419,210.125
20:54:38:063,-1.6722,-4.6633,14.1774,39.1388,2.407,1.0798,-0.9154,210.8906
20:54:38:080,-1.7704,-5.2283,14.7592,39.0378,2.6885,1.062,-1.2278,211.8281
20:54:38:097,-2.1714,-5.3361,14.57,40.3001,2.8736,0.5674,-1.3974,213.25
20:54:38:114,-2.6168,-5.0643,13.8171,38.5017,2.9998,0.0289,-1.3095,215.1875
20:54:38:135,-3.1423,-4.7746,12.6319,41.1715,3.1236,-0.3349,-1.0107,217.5156
20:54:38:153,-3.0812,-4.6573,11.5653,42.91,3.2501,-0.4803,-0.673,219.7656
20:54:38:179,-2.4671,-4.874,10.9069,44.1416,3.3654,-0.5881,-0.4464,221.8281
20:54:38:196,-1.8303,-5.2547,10.3586,45.0519,3.4326,-0.7407,-0.3593,223.4375
20:54:38:214,-1.3442,-5.6066,9.6715,45.2138,3.4491,-0.9138,-0.3687,224.5781
20:54:38:233,-1.0533,-5.7359,8.6588,43.9608,3.4043,-0.9927,-0.3982,225.4844
20:54:38:256,-1.0378,-5.6904,7.5107,42.6476,3.2712,-0.9479,-0.3577,226.6406
20:54:38:278,-1.0306,-5.6461,6.5327,43.2965,3.0421,-0.8382,-0.2177,227.375
20:54:38:296,-0.6391,-5.548,6.3053,42.4169,2.8331,-0.7652,-0.0616,228.1406
20:54:38:315,-0.3399,-5.6725,6.2274,42.547,2.6773,-0.7405,0.1102,228.7656
20:54:38:334,-0.0322,-5.8269,5.2027,43.1857,2.3034,-0.7287,0.1935,229.1719
20:54:38:354,-0.201,-5.8844,4.3121,42.1361,1.6599,-0.7639,0.1951,229.3906
20:54:38:377,-0.4943,-5.6222,4.5467,43.8496,0.9846,-0.8284,0.2101,229.4375
20:54:38:396,-0.9276,-5.1146,5.3847,43.5424,0.4591,-0.8957,0.2676,229.4062
20:54:38:414,-1.2018,-4.54,5.8839,42.0305,0.029,-0.8507,0.3046,229.3438
20:54:38:434,-1.3969,-3.9043,6.5495,43.9968,-0.2708,-0.6369,0.2489,229.2031
20:54:38:454,-2.2385,-3.714,7.4904,42.4953,-0.4029,-0.2803,0.2034,228.9844
20:54:38:479,-3.5002,-3.9259,7.7226,44.3828,-0.5603,0.0414,0.3073,228.7656
20:54:38:497,-3.3063,-3.8433,6.82,43.7273,-0.9822,0.1024,0.5392,228.5625
20:54:38:516,-2.3187,-3.3178,7.7513,43.0898,-1.5931,-0.0542,0.7265,228.2969
20:54:38:534,-1.9248,-3.0089,8.7246,43.2829,-1.9947,-0.215,0.8237,227.8281
20:54:38:554,-2.4671,-3.3094,8.9784,42.4398,-2.0935,-0.1431,0.8878,227.0625
20:54:38:577,-2.6742,-3.9163,9.0394,44.9336,-2.1079,0.2673,1.0708,226.1562
20:54:38:596,-2.3833,-4.5232,10.1839,43.7176,-2.3018,0.8809,1.2668,225.1719
20:54:38:613,-1.5561,-4.5771,11.6575,44.5161,-2.5468,1.3642,1.3134,224.1094
20:54:38:634,-0.8091,-4.2156,12.4931,47.3701,-2.6677,1.5019,1.2061,222.7188
20:54:38:654,-0.7612,-3.6075,11.9316,47.5124,-2.6333,1.2977,1.0532,221.1875
20:54:38:679,-0.9827,-2.973,10.4544,49.6965,-2.5471,0.9035,1.0202,219.7656
20:54:38:696,-0.9803,-2.5049,8.9604,50.6064,-2.5018,0.5892,1.1581,218.4375
20:54:38:713,-0.5494,-2.1721,8.1356,48.8858,-2.4911,0.5131,1.3645,217.2031
20:54:38:778,0.133,-2.1638,8.3056,47.3809,-2.4778,0.7088,1.4788,215.8438
20:54:38:779,0.6813,-2.3002,9.28,41.6743,-2.4136,1.0455,1.4093,214.3281
20:54:38:779,0.6322,-2.5468,9.2908,41.1416,-2.2605,1.1017,1.1281,212.5156
20:54:38:798,0.3317,-2.2715,8.6994,41.7225,-2.2008,0.7967,0.7818,210.7188
20:54:38:813,0.1102,-1.4335,9.456,42.5185,-2.3806,0.6465,0.5131,209.25
20:54:38:838,-0.2429,-0.6123,11.7676,42.2566,-2.5308,0.9416,0.3432,207.5625
20:54:38:852,-0.4907,0.0377,14.0325,42.4677,-2.3867,1.4066,0.2138,206.7344
20:54:38:874,-0.5266,0.5321,14.9256,42.381,-1.9753,1.5472,0.1302,206.2031
20:54:38:898,-1.1874,0.6363,15.0345,41.3172,-1.5532,1.0114,0.091,205.9375
20:54:38:917,-1.7082,0.5968,14.8382,41.221,-1.2472,0.1048,0.2295,205.9219
20:54:38:934,-1.6447,0.5309,14.6514,42.2809,-0.9878,-0.5913,0.4553,205.9219
20:54:38:955,-1.2018,0.3825,15.4511,42.581,-0.6732,-0.9482,0.4987,205.6562
20:54:38:979,-0.7433,0.1227,15.8557,43.3971,-0.1454,-0.9333,0.3395,204.8438
20:54:38:997,-1.701,-0.9906,14.6012,43.8965,0.596,-0.9003,0.1288,203.7031
20:54:39:015,-2.6371,-2.3577,13.4053,43.4598,1.1255,-0.9184,0.037,202.7031
20:54:39:033,-3.0441,-3.5979,13.6303,44.3714,1.1854,-0.5935,0.0431,202.0938
20:54:39:053,-1.7106,-3.4626,14.418,44.7174,0.9952,-0.2861,0.0319,201.7969
20:54:39:078,-0.8905,-2.9251,15.3493,43.1554,0.8413,-0.5264,-0.1966,201.7812
20:54:39:097,-1.0988,-2.5708,14.9495,45.116,0.9848,-1.1197,-0.4938,201.8438
20:54:39:113,-1.5406,-3.2914,14.1271,45.3658,1.3452,-1.521,-0.6158,202.0469
20:54:39:137,-1.1826,-4.2958,13.179,47.8497,1.7718,-1.1418,-0.5346,202.375
20:54:39:152,-0.6703,-5.1385,12.2728,45.3517,2.0831,-0.4134,-0.5671,202.7812
20:54:39:173,0.1976,-5.3409,11.6192,47.3924,2.1761,-0.0488,-0.847,203.2969
20:54:39:195,0.3928,-5.0655,11.5677,46.8587,2.1068,0.0609,-1.578,204.125
20:54:39:214,0.06,-4.6681,11.2648,49.2555,2.2384,0.0817,-1.689,204.125
20:54:39:234,-0.3028,-4.2946,10.3072,51.8678,2.334,0.0497,-1.6723,207.0625
20:54:39:253,-0.5518,-4.0229,9.3435,53.1316,2.3489,-0.0214,-1.5676,209.1406
20:54:39:280,-0.6056,-3.8074,8.8204,53.7601,2.3572,-0.1048,-1.3857,211.25
20:54:39:298,-0.6487,-3.781,8.7485,53.7655,2.4229,-0.1194,-1.1359,213.4219
20:54:39:317,-0.7182,-3.9654,8.4708,52.0885,2.4805,-0.2238,-0.8733,216.3906
20:54:39:333,-0.6236,-4.1354,7.8112,50.1296,2.4291,-0.369,-0.6608,217.1719
20:54:39:352,-0.4512,-4.4035,7.3683,50.1278,2.3212,-0.4451,-0.5114,218.6719
20:54:39:373,-0.2573,-4.6609,6.8978,50.9637,2.1907,-0.4337,-0.4176,219.8594
20:54:39:395,0.0336,-4.8584,6.389,48.7407,1.9859,-0.3903,-0.3729,220.7969
20:54:39:413,0.1438,-4.8524,6.0634,50.5378,1.6954,-0.4339,-0.3814,221.4844
20:54:39:433,0.0121,-4.6154,5.8671,48.2066,1.3798,-0.5285,-0.4171,222.1094
20:54:39:452,-0.4297,-4.388,5.7881,48.6498,1.093,-0.5261,-0.3907,222.6719
20:54:39:480,-1.2006,-4.394,5.7606,48.9242,0.8003,-0.3823,-0.2725,223.1875
20:54:39:498,-2.1595,-4.6082,5.7067,48.7125,0.424,-0.2171,-0.032,223.75
20:54:39:515,-2.0816,-4.6645,5.6612,47.2054,-0.0916,-0.1234,0.1789,224.2812
20:54:39:536,-0.9097,-4.2802,6.5243,48.3257,-0.5665,-0.1181,0.1632,224.6406
20:54:39:552,-0.9193,-4.2024,8.5235,47.9583,-0.7294,-0.0662,0.0694,224.7031
20:54:39:573,-3.2093,-5.0177,9.8223,47.9468,-0.7286,0.1485,0.282,224.5
20:54:39:594,-4.4758,-5.9263,8.6743,46.9736,-1.0906,0.2779,0.8173,224.2969
20:54:39:613,-2.5401,-5.6461,7.8423,49.7026,-1.8288,0.0707,1.1382,224.0938
20:54:39:632,-0.7565,-5.0093,9.6571,48.7875,-2.2078,-0.2385,1.1459,223.4219
20:54:39:653,-0.0574,-4.309,11.0158,49.3482,-2.0719,-0.3905,1.0026,222.2031
20:54:39:678,-1.0629,-4.2563,10.4269,49.3482,-1.8637,-0.0765,1.0215,220.8281
20:54:39:695,-1.8889,-4.546,9.2561,50.3528,-1.9713,0.5208,1.1563,219.5156
20:54:39:714,-1.8494,-4.777,9.8092,50.4813,-2.1857,1.0005,1.2703,218.3125
20:54:39:733,-1.3921,-4.9099,11.1894,50.5211,-2.2373,1.0873,1.3549,217.0938
20:54:39:753,-0.6631,-4.892,11.6084,51.0483,-2.2091,0.8183,1.4026,215.6719
20:54:39:779,-0.0981,-4.5915,10.9153,49.8451,-2.2075,0.3525,1.446,214.1406
20:54:39:796,0.1809,-4.0624,9.5446,52.0346,-2.2445,-0.0744,1.5187,212.6094
20:54:39:813,0.1869,-3.5835,8.2027,49.7059,-2.2957,-0.2116,1.6226,210.875
20:54:39:833,0.297,-3.2878,7.4545,49.2839,-2.33,0.0164,1.6894,209
20:54:39:853,0.8046,-3.216,7.7394,49.8923,-2.2818,0.4494,1.6002,206.9531
20:54:39:878,0.9949,-3.1957,8.454,47.4886,-2.1449,0.7991,1.336,204.875
20:54:39:897,0.4047,-3.368,8.6635,48.17,-2.0416,0.7863,1.0274,203.7969
20:54:39:915,0.0959,-3.1442,8.6001,49.2002,-2.1332,0.4106,0.8295,200.9531
20:54:39:941,-0.1376,-2.6234,9.2561,49.2444,-2.3372,0.0026,0.7869,199.6094
20:54:39:952,-0.5206,-2.0093,10.3766,50.0839,-2.4368,-0.1522,0.8274,198.4375
20:54:39:973,-0.8678,-1.4982,11.0913,50.8451,-2.2924,-0.1008,0.8783,197.2031
20:54:39:998,-0.8474,-1.1726,11.3427,50.9821,-2.0131,-0.0534,0.939,195.8906
20:54:40:015,-0.8618,-1.1845,11.7078,50.7861,-1.7625,-0.1218,0.9699,194.4219
20:54:40:032,-0.6882,-1.3126,12.0023,50.9027,-1.5454,-0.2385,0.9651,192.9375
20:54:40:052,-0.3913,-1.3832,12.5984,52.1735,-1.3566,-0.2374,0.8687,191.4219
20:54:40:078,-0.4332,-1.4144,13.5693,52.1735,-1.1518,-0.0872,0.6061,189.9531
20:54:40:097,-0.5745,-1.5042,14.2624,52.1223,-0.8501,0.0574,0.3288,188.4375
20:54:40:113,-0.7002,-1.6358,14.6359,51.9725,-0.5236,0.0199,0.1448,187.2031
20:54:40:133,-0.857,-1.9866,15.1506,52.1779,-0.244,-0.0981,0.067,186.4688
20:54:40:153,-0.5374,-2.4726,15.5493,52.9565,0.0549,-0.1658,0.0932,186.0781
20:54:40:178,0.3473,-1.9423,15.4846,51.0532,0.3731,-0.2313,0.0612,185.8594
20:54:40:196,-0.2645,-1.5437,15.25,50.7457,0.6908,-0.508,-0.2778,185.5938
20:54:40:212,-1.0665,-1.8621,14.2528,50.9513,1.1817,-0.8028,-0.5218,185.5
20:54:40:233,-1.4819,-3.3465,13.7249,48.734,1.6914,-0.7727,-0.4507,185.7344
20:54:40:256,-1.1024,-5.1014,14.3043,46.6534,2.0272,-0.41,-0.2768,186.1875
20:54:40:279,-0.2321,-6.0256,14.9603,46.4277,2.2048,-0.0848,-0.3053,186.7031
20:54:40:299,0.1198,-6.1357,15.4619,44.8738,2.2983,-0.1828,-0.6605,187.25
20:54:40:318,-0.4141,-6.022,15.3182,43.4575,2.4482,-0.4134,-1.1306,187.9844
20:54:40:332,-1.0964,-6.0591,14.157,42.3562,2.7249,-0.5335,-1.4158,188.4375
20:54:40:354,-1.2305,-6.2483,12.6607,40.0488,2.9987,-0.5122,-1.4531,189.7812
20:54:40:379,-0.778,-6.3045,11.8179,40.9105,3.1119,-0.4206,-1.3926,191.5312
20:54:40:399,-0.4081,-6.2135,11.5533,40.5224,3.1018,-0.3152,-1.3852,193.4375
20:54:40:413,-0.4201,-6.0388,11.0625,41.6945,3.1356,-0.3343,-1.4406,195.25
20:54:40:439,-0.6655,-5.8377,10.1312,43.0009,3.211,-0.4278,-1.4616,197.0938
20:54:40:451,-0.9743,-5.6282,9.2537,42.3224,3.2379,-0.4931,-1.4094,198.9688
20:54:40:474,-1.2257,-5.4941,8.5259,42.1643,3.1953,-0.5224,-1.3056,201.7188
20:54:40:495,-1.422,-5.3947,7.6508,40.0212,3.1146,-0.5373,-1.1799,203.5312
20:54:40:517,-1.4795,-5.3528,6.8104,39.199,2.9814,-0.5034,-1.0238,205.1875
20:54:40:534,-1.4089,-5.208,6.1305,40.5864,2.771,-0.4315,-0.8486,206.625
20:54:40:555,-1.2353,-4.9961,5.7654,38.7541,2.5074,-0.3101,-0.6842,207.9375
20:54:40:583,-1.3802,-4.7447,5.4757,39.217,2.2253,-0.1887,-0.5726,209.0469
20:54:40:602,-1.9943,-4.6166,5.0531,38.8945,1.6171,0.0292,-0.2555,209.9062
20:54:40:613,-2.3857,-4.4574,4.6066,38.7015,1.1878,0.2092,0.0596,210.6719
20:54:40:632,-2.5569,-4.5161,4.822,39.6674,0.6916,0.3762,0.4303,211.2969
20:54:40:652,-2.6395,-5.02,5.7031,40.5718,0.1696,0.4617,0.8189,211.6562
20:54:40:672,-2.6634,-5.8161,6.4513,37.7681,-0.4157,0.2888,1.18,211.6094
20:54:40:696,-0.1364,-5.2607,6.4178,39.013,-1.1143,-0.2523,1.1557,210.125
20:54:40:713,1.0164,-4.4359,7.7609,38.7062,-1.4559,-0.6765,0.9019,210.125
20:54:40:732,-0.019,-4.1557,8.1799,38.0827,-1.5095,-0.5437,0.7605,207.4219
20:54:40:752,-1.2113,-4.0983,7.6652,38.6859,-1.6538,-0.0017,0.6703,206.875
20:54:40:781,-1.4556,-3.9391,7.6508,38.4668,-1.914,0.4873,0.5328,205.5781
20:54:40:849,-1.3706,-3.7834,8.8694,38.4103,-2.1098,0.8678,0.4266,205.1562
20:54:40:850,-1.9248,-3.7475,10.2617,38.7396,-2.1311,1.038,0.4737,204.7656
20:54:40:862,-2.6036,-3.9379,10.8327,38.5821,-2.1367,1.0907,0.6556,204.0781
20:54:40:863,-3.1112,-4.2527,10.9775,39.2069,-2.199,1.0305,0.9283,203.4844
20:54:40:887,-3.256,-4.4562,10.7621,40.8412,-2.3505,0.7954,1.2679,202.8594
20:54:40:891,-2.7724,-4.5364,10.3191,41.4036,-2.5473,0.4431,1.5741,202
20:54:40:913,-1.8674,-4.4239,9.8666,42.3181,-2.6909,0.161,1.7616,200.8125
20:54:40:936,-0.9444,-4.1366,9.456,41.0342,-2.7218,0.0984,1.7899,199.2969
20:54:40:952,-0.2429,-3.7308,9.1029,40.9305,-2.6344,0.2303,1.6623,197.3125
20:54:40:979,0.0432,-3.3728,8.7186,39.022,-2.502,0.4753,1.4703,195.0312
20:54:40:997,-0.1364,-3.2388,8.4289,38.2545,-2.4312,0.6636,1.3129,192.8125
20:54:41:017,-0.4524,-3.2232,8.3152,36.6297,-2.4586,0.6929,1.2314,188.75
20:54:41:034,-0.4392,-3.1813,8.5654,37.1013,-2.5625,0.6252,1.2018,187.875
20:54:41:055,-0.1495,-3.0125,9.3555,36.3866,-2.6336,0.5858,1.1749,186.3281
20:54:41:078,0.1007,-2.7132,10.4951,38.9756,-2.5806,0.5618,1.1134,184.7031
20:54:41:097,0.1378,-2.5229,11.436,36.8465,-2.4413,0.4593,1.0263,183.0469
20:54:41:116,0.0827,-2.3254,12.0621,37.6083,-2.2674,0.2268,0.9552,181.4062
20:54:41:132,0.2503,-2.1254,12.0908,38.0398,-2.1087,-0.0909,0.9067,179.9062
20:54:41:152,0.4347,-1.9279,12.0274,38.3112,-1.9582,-0.1828,0.8876,178.3906
20:54:41:173,0.4957,-1.8453,12.5793,39.638,-1.7255,-0.0294,0.8207,176.8281
20:54:41:196,0.5484,-1.8561,13.5405,41.0782,-1.4043,0.1275,0.601,175.3125
20:54:41:215,-0.0202,-1.9315,14.0792,39.4216,-1.127,0.2446,0.3547,173.7969
20:54:41:232,-0.4057,-2.0058,14.6586,40.1525,-0.9329,0.21,0.1669,172.5781
20:54:41:255,-0.6008,-2.074,15.5804,40.7737,-0.7092,-0.0872,0.0258,171.8125
20:54:41:280,-1.0557,-2.305,16.4567,39.2989,-0.3965,-0.297,-0.0251,171.3594
20:54:41:297,0.0552,-0.6602,15.7384,40.4855,-0.0445,-0.6252,-0.2517,171.0625
20:54:41:314,-1.1204,-0.4399,14.8609,39.3231,0.4482,-1.194,-0.6137,170.9219
20:54:41:338,-2.0553,-1.3186,13.5669,40.09,1.1049,-1.4217,-0.6741,170.6406
20:54:41:351,-2.0769,-3.0748,12.7588,39.2347,1.6783,-1.0039,-0.4997,170.7656
20:54:41:373,-1.2437,-4.5999,13.0114,40.62,1.9731,-0.2883,-0.4328,171.0781
20:54:41:399,-0.2154,-5.439,13.8661,41.2257,2.0826,0.2641,-0.6632,171.4531
20:54:41:415,0.0265,-5.4319,14.2672,39.0799,2.175,0.2998,-1.157,172.0625
20:54:41:437,-0.9971,-5.2307,13.683,39.9059,2.334,0.0374,-1.6387,173.0938
20:54:41:452,-1.75,-5.0775,12.5625,39.6933,2.5516,-0.0195,-1.7751,174.5938
20:54:41:473,-1.8626,-5.0955,11.3594,39.295,2.7449,0.1312,-1.6249,176.7344
20:54:41:500,-1.4639,-4.9973,10.798,39.8163,2.8104,0.251,-1.3945,179.1719
20:54:41:517,-1.0354,-4.8381,10.8267,42.6697,2.795,0.3224,-1.1932,181.5938
20:54:41:532,-0.7565,-4.6777,10.6639,44.0898,2.8475,0.2902,-1.0171,183.7031
20:54:41:554,-0.7636,-4.5735,9.9121,44.8059,2.9559,0.1024,-0.868,185.6719
20:54:41:580,-0.9265,-4.6011,9.1136,42.0134,3.0299,-0.1021,-0.7066,187.4062
20:54:41:596,-0.9504,-4.7926,8.4493,41.3524,3.0544,-0.1676,-0.5058,188.8594
20:54:41:614,-0.802,-5.0823,8.0506,43.7906,3.0365,-0.0954,-0.2824,190.7344
20:54:41:631,-0.4356,-5.5611,7.889,41.8492,2.9652,0.0327,-0.0882,191.6719
20:54:41:662,0.115,-5.8963,7.7382,42.7179,2.8144,-0.0049,0.0314,192.3281
20:54:41:679,0.2204,-5.9717,7.3719,43.087,2.571,-0.2302,0.0473,192.7812
20:54:41:696,-0.1028,-5.7958,6.8308,40.9041,2.2805,-0.4923,0.0181,193.0938
20:54:41:714,-0.5877,-5.7,6.3555,42.5249,1.9761,-0.5985,0.017,193.3438
20:54:41:732,-0.9468,-5.7156,6.0658,44.7858,1.681,-0.4494,0.0833,193.5938
20:54:41:753,-1.1144,-5.6892,5.6229,42.6521,1.3667,-0.2563,0.1978,193.7031
20:54:41:772,-0.9875,-5.7694,4.9058,43.3627,0.9595,-0.2411,0.3395,193.8906
20:54:41:796,-0.6954,-5.688,5.2769,43.2269,0.3483,-0.4558,0.4849,193.9062
20:54:41:815,-1.2066,-5.8448,6.9409,43.2269,-0.343,-0.6302,0.58,193.7344
20:54:41:833,-1.5645,-5.8269,8.7234,43.3444,-0.8368,-0.5559,0.675,193.3594
20:54:41:851,-0.9384,-5.2523,9.5841,44.6184,-1.1377,-0.3913,0.7075,192.7969
20:54:41:871,-0.2309,-4.0336,9.9971,45.394,-1.3723,-0.5381,0.5643,192.5
20:54:41:895,-0.6595,-2.7994,10.3096,44.9516,-1.5393,-0.8052,0.2455,190.8438
20:54:41:911,-2.4731,-2.1446,10.4233,45.2165,-1.5382,-0.7825,-0.0307,190.1875
20:54:41:932,-4.1359,-1.989,9.96,45.8047,-1.3931,-0.3647,-0.0733,189.8594
20:54:41:955,-4.8146,-2.0333,9.5626,46.5633,-1.3036,0.2612,0.1187,189.8594
20:54:41:971,-4.2903,-2.2104,9.6978,45.5509,-1.3758,0.7845,0.4434,189.8906
20:54:41:991,-3.5493,-2.5911,10.2413,46.8159,-1.5358,0.9986,0.7542,189.7031
